Timer,AX,AY,AZ,GX,GY,GZ,A
"40","-1.96678966789668","-1.44169741697417","0.614022140221401","0.979704797047971","0.0335793357933579","0","358.75"
"5.10526","-0.966789667896679","-2.44169741697417","-1.3859778597786","0.979704797047971","0.0335793357933579","0","358.75"
"10.21053","-0.966789667896679","-2.44169741697417","-1.3859778597786","-0.0202952029520295","3.03357933579336","0","358.75"
"15.31579","-0.966789667896679","-0.44169741697417","-0.385977859778599","-0.0202952029520295","3.03357933579336","0","358.75"
"20.42105","-0.966789667896679","-0.44169741697417","-0.385977859778599","2.97970479704797","2.03357933579336","0","358.75"
"25.52632","-0.966789667896679","-0.44169741697417","-0.385977859778599","2.97970479704797","2.03357933579336","0","358.75"
"30.63158","-0.966789667896679","-0.44169741697417","-0.385977859778599","-1.02029520295203","-0.966420664206642","0","358.75"
"35.73684","0.0332103321033213","-3.44169741697417","0.614022140221401","-1.02029520295203","-0.966420664206642","0","358.75"
"40.84211","0.0332103321033213","-3.44169741697417","0.614022140221401","2.97970479704797","-0.966420664206642","0","358.75"
"45.94737","-0.966789667896679","-3.44169741697417","-0.385977859778599","2.97970479704797","-0.966420664206642","0","358.75"
"51.05263","-0.966789667896679","-3.44169741697417","-0.385977859778599","-0.0202952029520295","1.03357933579336","0","358.75"
"56.15789","-2.96678966789668","0.55830258302583","-1.3859778597786","-0.0202952029520295","1.03357933579336","0","358.75"
"61.26316","-2.96678966789668","0.55830258302583","-1.3859778597786","1.97970479704797","0.0335793357933579","0","358.75"
"66.36842","-1.96678966789668","-2.44169741697417","0.614022140221401","1.97970479704797","0.0335793357933579","0","358.75"
"71.47368","-1.96678966789668","-2.44169741697417","0.614022140221401","-0.0202952029520295","-0.966420664206642","0","358.75"
"76.57895","-0.966789667896679","-2.44169741697417","1.6140221402214","-0.0202952029520295","-0.966420664206642","0","358.75"
"81.68421","-0.966789667896679","-2.44169741697417","1.6140221402214","0.979704797047971","1.03357933579336","0","358.75"
"86.78947","-0.966789667896679","-1.44169741697417","1.6140221402214","0.979704797047971","1.03357933579336","0","358.75"
"91.89474","-0.966789667896679","-1.44169741697417","1.6140221402214","1.97970479704797","0.0335793357933579","0","358.75"
"97","-1.96678966789668","-1.44169741697417","0.614022140221401","1.97970479704797","0.0335793357933579","0","358.75"
"103.42857","-1.96678966789668","-1.44169741697417","0.614022140221401","0.979704797047971","0.0335793357933579","0","358.75"
"106.85714","0.0332103321033213","-1.44169741697417","-2.3859778597786","0.979704797047971","0.0335793357933579","0","358.75"
"110.28571","0.0332103321033213","-1.44169741697417","-2.3859778597786","-3.02029520295203","1.03357933579336","0","358.75"
"113.71429","-2.96678966789668","-0.44169741697417","0.614022140221401","-3.02029520295203","1.03357933579336","0","358.75"
"117.14286","-2.96678966789668","-0.44169741697417","0.614022140221401","-1.02029520295203","2.03357933579336","0","358.75"
"120.57143","-2.96678966789668","-3.44169741697417","-0.385977859778599","-1.02029520295203","2.03357933579336","0","358.75"
"124","-2.96678966789668","-3.44169741697417","-0.385977859778599","-1.02029520295203","-0.966420664206642","0","358.75"
"127.42857","-0.966789667896679","-0.44169741697417","-0.385977859778599","-1.02029520295203","-0.966420664206642","0","358.75"
"130.85714","-0.966789667896679","-0.44169741697417","-0.385977859778599","-0.0202952029520295","2.03357933579336","0","358.75"
"134.28571","-0.966789667896679","-2.44169741697417","-0.385977859778599","-0.0202952029520295","2.03357933579336","0","358.75"
"137.71429","-0.966789667896679","-2.44169741697417","-0.385977859778599","4.97970479704797","-1.96642066420664","0","358.75"
"141.14286","-0.966789667896679","-2.44169741697417","-0.385977859778599","4.97970479704797","-1.96642066420664","0","358.75"
"144.57143","-0.966789667896679","-2.44169741697417","-0.385977859778599","-0.0202952029520295","-0.966420664206642","0","358.75"
"148","-0.966789667896679","-2.44169741697417","-0.385977859778599","-0.0202952029520295","-0.966420664206642","0","358.75"
"151.42857","-0.966789667896679","-2.44169741697417","-0.385977859778599","2.97970479704797","0.0335793357933579","0","358.75"
"154.85714","-0.966789667896679","-1.44169741697417","2.6140221402214","2.97970479704797","0.0335793357933579","0","358.75"
"158.28571","-0.966789667896679","-1.44169741697417","2.6140221402214","0.979704797047971","-0.966420664206642","0","358.75"
"161.71429","-0.966789667896679","-1.44169741697417","0.614022140221401","0.979704797047971","-0.966420664206642","0","358.75"
"165.14286","-0.966789667896679","-1.44169741697417","0.614022140221401","-0.0202952029520295","0.0335793357933579","0","358.75"
"168.57143","-1.96678966789668","-2.44169741697417","-0.385977859778599","-0.0202952029520295","0.0335793357933579","0","358.75"
"172","-1.96678966789668","-2.44169741697417","-0.385977859778599","0.979704797047971","-0.966420664206642","0","358.75"
"175.42857","-0.966789667896679","-0.44169741697417","-2.3859778597786","0.979704797047971","-0.966420664206642","0","358.75"
"178.85714","-0.966789667896679","-0.44169741697417","-2.3859778597786","1.97970479704797","0.0335793357933579","0","358.75"
"182.28571","-1.96678966789668","-2.44169741697417","0.614022140221401","1.97970479704797","0.0335793357933579","0","358.75"
"185.71429","-1.96678966789668","-2.44169741697417","0.614022140221401","-0.0202952029520295","0.0335793357933579","0","358.75"
"189.14286","-1.96678966789668","-1.44169741697417","-0.385977859778599","-0.0202952029520295","0.0335793357933579","0","358.75"
"192.57143","-1.96678966789668","-1.44169741697417","-0.385977859778599","-0.0202952029520295","0.0335793357933579","0","358.75"
"196","-0.966789667896679","0.55830258302583","-0.385977859778599","-0.0202952029520295","0.0335793357933579","0","358.75"
"202.76471","-0.966789667896679","0.55830258302583","-0.385977859778599","-2.02029520295203","5.03357933579336","0","358.75"
"205.52941","-1.96678966789668","-0.44169741697417","-0.385977859778599","-2.02029520295203","5.03357933579336","0","358.75"
"208.29412","-1.96678966789668","-0.44169741697417","-0.385977859778599","-1.02029520295203","-0.966420664206642","0","358.75"
"211.05882","-0.966789667896679","0.55830258302583","-3.3859778597786","-1.02029520295203","-0.966420664206642","0","358.75"
"213.82353","-0.966789667896679","0.55830258302583","-3.3859778597786","-0.0202952029520295","-0.966420664206642","0","358.75"
"216.58824","-0.966789667896679","-0.44169741697417","-0.385977859778599","-0.0202952029520295","-0.966420664206642","0","358.75"
"219.35294","-0.966789667896679","-0.44169741697417","-0.385977859778599","-1.02029520295203","-0.966420664206642","0","358.75"
"222.11765","-1.96678966789668","-1.44169741697417","1.6140221402214","-1.02029520295203","-0.966420664206642","0","358.75"
"224.88235","-1.96678966789668","-1.44169741697417","1.6140221402214","-1.02029520295203","-0.966420664206642","0","358.75"
"227.64706","-0.966789667896679","-1.44169741697417","-0.385977859778599","-1.02029520295203","-0.966420664206642","0","358.75"
"230.41176","-0.966789667896679","-1.44169741697417","-0.385977859778599","2.97970479704797","1.03357933579336","0","358.75"
"233.17647","1.03321033210332","-1.44169741697417","0.614022140221401","2.97970479704797","1.03357933579336","0","358.75"
"235.94118","1.03321033210332","-1.44169741697417","0.614022140221401","-1.02029520295203","0.0335793357933579","0","358.75"
"238.70588","2.03321033210332","-0.44169741697417","-0.385977859778599","-1.02029520295203","0.0335793357933579","0","358.75"
"241.47059","2.03321033210332","-0.44169741697417","-0.385977859778599","-0.0202952029520295","-0.966420664206642","0","358.75"
"244.23529","-1.96678966789668","-0.44169741697417","-0.385977859778599","-0.0202952029520295","-0.966420664206642","0","358.75"
"247","-1.96678966789668","-0.44169741697417","-0.385977859778599","-0.0202952029520295","1.03357933579336","0","358.75"
"249.76471","0.0332103321033213","-1.44169741697417","-0.385977859778599","-0.0202952029520295","1.03357933579336","0","358.75"
"252.52941","0.0332103321033213","-1.44169741697417","-0.385977859778599","-1.02029520295203","2.03357933579336","0","358.75"
"255.29412","-0.966789667896679","-2.44169741697417","2.6140221402214","-1.02029520295203","2.03357933579336","0","358.75"
"258.05882","-0.966789667896679","-2.44169741697417","2.6140221402214","0.979704797047971","-0.966420664206642","0","358.75"
"260.82353","-0.966789667896679","0.55830258302583","0.614022140221401","0.979704797047971","-0.966420664206642","0","358.75"
"263.58824","-0.966789667896679","0.55830258302583","0.614022140221401","-1.02029520295203","0.0335793357933579","0","358.75"
"266.35294","-0.966789667896679","0.55830258302583","-2.3859778597786","-1.02029520295203","0.0335793357933579","0","358.75"
"269.11765","-0.966789667896679","0.55830258302583","-2.3859778597786","-2.02029520295203","0.0335793357933579","0","358.75"
"271.88235","-1.96678966789668","-2.44169741697417","-0.385977859778599","-2.02029520295203","0.0335793357933579","0","358.75"
"274.64706","-1.96678966789668","-2.44169741697417","-0.385977859778599","-1.02029520295203","2.03357933579336","0","358.75"
"277.41176","-1.96678966789668","-1.44169741697417","0.614022140221401","-1.02029520295203","2.03357933579336","0","358.75"
"280.17647","-1.96678966789668","-1.44169741697417","0.614022140221401","-4.02029520295203","1.03357933579336","0","358.75"
"282.94118","1.03321033210332","-2.44169741697417","2.6140221402214","-4.02029520295203","1.03357933579336","0","358.75"
"285.70588","1.03321033210332","-2.44169741697417","2.6140221402214","1.97970479704797","0.0335793357933579","0","358.75"
"288.47059","-4.96678966789668","-0.44169741697417","0.614022140221401","1.97970479704797","0.0335793357933579","0","358.75"
"291.23529","-4.96678966789668","-0.44169741697417","0.614022140221401","2.97970479704797","-0.966420664206642","0","358.75"
"294","-1.96678966789668","-1.44169741697417","0.614022140221401","2.97970479704797","-0.966420664206642","0","358.75"
"300","-1.96678966789668","-1.44169741697417","0.614022140221401","0.979704797047971","2.03357933579336","0","358.75"
"300","-1.96678966789668","-2.44169741697417","-0.385977859778599","0.979704797047971","2.03357933579336","0","358.75"
"303.35714","-1.96678966789668","-2.44169741697417","-0.385977859778599","0.979704797047971","0.0335793357933579","0","358.75"
"306.71429","-0.966789667896679","-1.44169741697417","1.6140221402214","0.979704797047971","0.0335793357933579","0","358.75"
"310.07143","-0.966789667896679","-1.44169741697417","1.6140221402214","3.97970479704797","1.03357933579336","0","358.75"
"313.42857","-0.966789667896679","0.55830258302583","0.614022140221401","3.97970479704797","1.03357933579336","0","358.75"
"316.78571","-0.966789667896679","0.55830258302583","0.614022140221401","3.97970479704797","0.0335793357933579","0","358.75"
"320.14286","0.0332103321033213","-2.44169741697417","-0.385977859778599","3.97970479704797","0.0335793357933579","0","358.75"
"323.5","0.0332103321033213","-2.44169741697417","-0.385977859778599","4.97970479704797","-0.966420664206642","0","358.75"
"326.85714","1.03321033210332","-2.44169741697417","1.6140221402214","4.97970479704797","-0.966420664206642","0","358.75"
"330.21429","1.03321033210332","-2.44169741697417","1.6140221402214","-0.0202952029520295","-2.96642066420664","0","358.75"
"333.57143","-0.966789667896679","-1.44169741697417","-0.385977859778599","-0.0202952029520295","-2.96642066420664","0","358.75"
"336.92857","-0.966789667896679","-1.44169741697417","-0.385977859778599","3.97970479704797","1.03357933579336","0","358.75"
"340.28571","0.0332103321033213","0.55830258302583","-0.385977859778599","3.97970479704797","1.03357933579336","0","358.75"
"343.64286","0.0332103321033213","0.55830258302583","-0.385977859778599","1.97970479704797","0.0335793357933579","0","358.75"
"347","1.03321033210332","-0.44169741697417","-0.385977859778599","1.97970479704797","0.0335793357933579","0","358.75"
"350.35714","1.03321033210332","-0.44169741697417","-0.385977859778599","-1.02029520295203","1.03357933579336","0","358.75"
"353.71429","-1.96678966789668","-1.44169741697417","-0.385977859778599","-1.02029520295203","1.03357933579336","0","358.75"
"357.07143","-1.96678966789668","-1.44169741697417","-0.385977859778599","0.979704797047971","-0.966420664206642","0","358.75"
"360.42857","0.0332103321033213","0.55830258302583","-1.3859778597786","0.979704797047971","-0.966420664206642","0","358.75"
"363.78571","0.0332103321033213","0.55830258302583","-1.3859778597786","-0.0202952029520295","0.0335793357933579","0","358.75"
"367.14286","-1.96678966789668","-0.44169741697417","-2.3859778597786","-0.0202952029520295","0.0335793357933579","0","358.75"
"370.5","-1.96678966789668","-0.44169741697417","-2.3859778597786","0.979704797047971","0.0335793357933579","0","358.75"
"373.85714","-0.966789667896679","-0.44169741697417","0.614022140221401","0.979704797047971","0.0335793357933579","0","358.75"
"377.21429","-0.966789667896679","-0.44169741697417","0.614022140221401","-1.02029520295203","-2.96642066420664","0","358.75"
"380.57143","-0.966789667896679","-3.44169741697417","-1.3859778597786","-1.02029520295203","-2.96642066420664","0","358.75"
"383.92857","-0.966789667896679","-3.44169741697417","-1.3859778597786","-1.02029520295203","-1.96642066420664","0","358.75"
"387.28571","-0.966789667896679","-1.44169741697417","1.6140221402214","-1.02029520295203","-1.96642066420664","0","358.75"
"390.64286","-0.966789667896679","-1.44169741697417","1.6140221402214","-0.0202952029520295","0.0335793357933579","0","358.75"
"394","-0.966789667896679","0.55830258302583","1.6140221402214","-0.0202952029520295","0.0335793357933579","0","358.75"
"400","-0.966789667896679","0.55830258302583","1.6140221402214","-1.02029520295203","0.0335793357933579","0","358.75"
"400","1.03321033210332","-0.44169741697417","0.614022140221401","-1.02029520295203","0.0335793357933579","0","358.75"
"402.91176","1.03321033210332","-0.44169741697417","0.614022140221401","-1.02029520295203","2.03357933579336","0","358.75"
"405.82353","-0.966789667896679","-3.44169741697417","2.6140221402214","-1.02029520295203","2.03357933579336","0","358.75"
"408.73529","-0.966789667896679","-3.44169741697417","2.6140221402214","-3.02029520295203","1.03357933579336","0","358.75"
"411.64706","0.0332103321033213","-1.44169741697417","2.6140221402214","-3.02029520295203","1.03357933579336","0","358.75"
"414.55882","0.0332103321033213","-1.44169741697417","2.6140221402214","2.97970479704797","2.03357933579336","0","358.75"
"417.47059","-0.966789667896679","-1.44169741697417","0.614022140221401","2.97970479704797","2.03357933579336","0","358.75"
"420.38235","-0.966789667896679","-1.44169741697417","0.614022140221401","0.979704797047971","2.03357933579336","0","358.75"
"423.29412","-0.966789667896679","-0.44169741697417","-2.3859778597786","0.979704797047971","2.03357933579336","0","358.75"
"426.20588","-0.966789667896679","-0.44169741697417","-2.3859778597786","2.97970479704797","-0.966420664206642","0","358.75"
"429.11765","-2.96678966789668","-3.44169741697417","1.6140221402214","2.97970479704797","-0.966420664206642","0","358.75"
"432.02941","-2.96678966789668","-3.44169741697417","1.6140221402214","1.97970479704797","-0.966420664206642","0","358.75"
"434.94118","0.0332103321033213","-0.44169741697417","0.614022140221401","1.97970479704797","-0.966420664206642","0","358.75"
"437.85294","0.0332103321033213","-0.44169741697417","0.614022140221401","1.97970479704797","-0.966420664206642","0","358.75"
"440.76471","-1.96678966789668","-1.44169741697417","-1.3859778597786","1.97970479704797","-0.966420664206642","0","358.75"
"443.67647","-1.96678966789668","-1.44169741697417","-1.3859778597786","0.979704797047971","-2.96642066420664","0","358.75"
"446.58824","0.0332103321033213","-1.44169741697417","-0.385977859778599","0.979704797047971","-2.96642066420664","0","358.75"
"449.5","0.0332103321033213","-1.44169741697417","-0.385977859778599","-0.0202952029520295","-0.966420664206642","0","358.75"
"452.41176","-2.96678966789668","-1.44169741697417","-2.3859778597786","-0.0202952029520295","-0.966420664206642","0","358.75"
"455.32353","-2.96678966789668","-1.44169741697417","-2.3859778597786","-1.02029520295203","1.03357933579336","0","358.75"
"458.23529","-2.96678966789668","-1.44169741697417","-0.385977859778599","-1.02029520295203","1.03357933579336","0","358.75"
"461.14706","-2.96678966789668","-1.44169741697417","-0.385977859778599","0.979704797047971","1.03357933579336","0","358.75"
"464.05882","-0.966789667896679","-2.44169741697417","1.6140221402214","0.979704797047971","1.03357933579336","0","358.75"
"466.97059","-0.966789667896679","-2.44169741697417","1.6140221402214","-0.0202952029520295","-3.96642066420664","0","358.75"
"469.88235","-1.96678966789668","-1.44169741697417","0.614022140221401","-0.0202952029520295","-3.96642066420664","0","358.75"
"472.79412","-1.96678966789668","-1.44169741697417","0.614022140221401","1.97970479704797","-0.966420664206642","0","358.75"
"475.70588","-2.96678966789668","-0.44169741697417","-0.385977859778599","1.97970479704797","-0.966420664206642","0","358.75"
"478.61765","-2.96678966789668","-0.44169741697417","-0.385977859778599","1.97970479704797","0.0335793357933579","0","358.75"
"481.52941","-0.966789667896679","-1.44169741697417","-2.3859778597786","1.97970479704797","0.0335793357933579","0","358.75"
"484.44118","-0.966789667896679","-1.44169741697417","-2.3859778597786","0.979704797047971","0.0335793357933579","0","358.75"
"487.35294","-1.96678966789668","-3.44169741697417","2.6140221402214","0.979704797047971","0.0335793357933579","0","358.75"
"490.26471","-1.96678966789668","-3.44169741697417","2.6140221402214","-2.02029520295203","0.0335793357933579","0","358.75"
"493.17647","0.0332103321033213","-1.44169741697417","-0.385977859778599","-2.02029520295203","0.0335793357933579","0","358.75"
"496.08824","0.0332103321033213","-1.44169741697417","-0.385977859778599","-1.02029520295203","1.03357933579336","0","358.75"
"499","-0.966789667896679","-2.44169741697417","-1.3859778597786","-1.02029520295203","1.03357933579336","0","358.75"
"503.0625","-0.966789667896679","-2.44169741697417","-1.3859778597786","0.979704797047971","-0.966420664206642","0","358.75"
"506.125","-2.96678966789668","-0.44169741697417","-2.3859778597786","0.979704797047971","-0.966420664206642","0","358.75"
"509.1875","-2.96678966789668","-0.44169741697417","-2.3859778597786","0.979704797047971","-0.966420664206642","0","358.75"
"512.25","1.03321033210332","-1.44169741697417","-1.3859778597786","0.979704797047971","-0.966420664206642","0","358.75"
"515.3125","1.03321033210332","-1.44169741697417","-1.3859778597786","-1.02029520295203","-2.96642066420664","0","358.75"
"518.375","-0.966789667896679","-2.44169741697417","-0.385977859778599","-1.02029520295203","-2.96642066420664","0","358.75"
"521.4375","-0.966789667896679","-2.44169741697417","-0.385977859778599","-0.0202952029520295","2.03357933579336","0","358.75"
"524.5","-1.96678966789668","-1.44169741697417","1.6140221402214","-0.0202952029520295","2.03357933579336","0","358.75"
"527.5625","-1.96678966789668","-1.44169741697417","1.6140221402214","-0.0202952029520295","1.03357933579336","0","358.75"
"530.625","-1.96678966789668","0.55830258302583","1.6140221402214","-0.0202952029520295","1.03357933579336","0","358.75"
"533.6875","-1.96678966789668","0.55830258302583","1.6140221402214","1.97970479704797","0.0335793357933579","0","358.75"
"536.75","-0.966789667896679","0.55830258302583","1.6140221402214","1.97970479704797","0.0335793357933579","0","358.75"
"539.8125","-0.966789667896679","0.55830258302583","1.6140221402214","-0.0202952029520295","0.0335793357933579","0","358.75"
"542.875","1.03321033210332","-1.44169741697417","-2.3859778597786","-0.0202952029520295","0.0335793357933579","0","358.75"
"545.9375","1.03321033210332","-1.44169741697417","-2.3859778597786","-0.0202952029520295","1.03357933579336","0","358.75"
"549","0.0332103321033213","-0.44169741697417","0.614022140221401","-0.0202952029520295","1.03357933579336","0","358.75"
"552.0625","0.0332103321033213","-0.44169741697417","0.614022140221401","1.97970479704797","-1.96642066420664","0","358.75"
"555.125","-0.966789667896679","-1.44169741697417","-0.385977859778599","1.97970479704797","-1.96642066420664","0","358.75"
"558.1875","-0.966789667896679","-1.44169741697417","-0.385977859778599","-2.02029520295203","1.03357933579336","0","358.75"
"561.25","-2.96678966789668","-0.44169741697417","4.6140221402214","-2.02029520295203","1.03357933579336","0","358.75"
"564.3125","-2.96678966789668","-0.44169741697417","4.6140221402214","-2.02029520295203","0.0335793357933579","0","358.75"
"567.375","1.03321033210332","-2.44169741697417","-0.385977859778599","-2.02029520295203","0.0335793357933579","0","358.75"
"570.4375","1.03321033210332","-2.44169741697417","-0.385977859778599","-1.02029520295203","-1.96642066420664","0","358.75"
"573.5","0.0332103321033213","-4.44169741697417","-2.3859778597786","-1.02029520295203","-1.96642066420664","0","358.75"
"576.5625","0.0332103321033213","-4.44169741697417","-2.3859778597786","0.979704797047971","-2.96642066420664","0","358.75"
"579.625","2.03321033210332","-0.44169741697417","-0.385977859778599","0.979704797047971","-2.96642066420664","0","358.75"
"582.6875","2.03321033210332","-0.44169741697417","-0.385977859778599","-2.02029520295203","0.0335793357933579","0","358.75"
"585.75","-0.966789667896679","0.55830258302583","0.614022140221401","-2.02029520295203","0.0335793357933579","0","358.75"
"588.8125","-0.966789667896679","0.55830258302583","0.614022140221401","-0.0202952029520295","-0.966420664206642","0","358.75"
"591.875","1.03321033210332","-2.44169741697417","1.6140221402214","-0.0202952029520295","-0.966420664206642","0","358.75"
"594.9375","1.03321033210332","-2.44169741697417","1.6140221402214","-1.02029520295203","3.03357933579336","0","358.75"
"598","0.0332103321033213","-1.44169741697417","-0.385977859778599","-1.02029520295203","3.03357933579336","0","358.75"
"603.03125","0.0332103321033213","-1.44169741697417","-0.385977859778599","-1.02029520295203","0.0335793357933579","0","358.75"
"606.0625","-1.96678966789668","-0.44169741697417","-0.385977859778599","-1.02029520295203","0.0335793357933579","0","358.75"
"609.09375","-1.96678966789668","-0.44169741697417","-0.385977859778599","-1.02029520295203","1.03357933579336","0","358.75"
"612.125","0.0332103321033213","-1.44169741697417","-0.385977859778599","-1.02029520295203","1.03357933579336","0","358.75"
"615.15625","0.0332103321033213","-1.44169741697417","-0.385977859778599","-2.02029520295203","-1.96642066420664","0","358.75"
"618.1875","-0.966789667896679","-2.44169741697417","3.6140221402214","-2.02029520295203","-1.96642066420664","0","358.75"
"621.21875","-0.966789667896679","-2.44169741697417","3.6140221402214","-0.0202952029520295","0.0335793357933579","0","358.75"
"624.25","-0.966789667896679","-1.44169741697417","-0.385977859778599","-0.0202952029520295","0.0335793357933579","0","358.75"
"627.28125","-0.966789667896679","-1.44169741697417","-0.385977859778599","0.979704797047971","2.03357933579336","0","358.75"
"630.3125","-0.966789667896679","-1.44169741697417","-0.385977859778599","0.979704797047971","2.03357933579336","0","358.75"
"633.34375","-0.966789667896679","-1.44169741697417","-0.385977859778599","1.97970479704797","-3.96642066420664","0","358.75"
"636.375","-0.966789667896679","-0.44169741697417","-1.3859778597786","1.97970479704797","-3.96642066420664","0","358.75"
"639.40625","-0.966789667896679","-0.44169741697417","-1.3859778597786","-3.02029520295203","-1.96642066420664","0","358.75"
"642.4375","-1.96678966789668","-1.44169741697417","-2.3859778597786","-3.02029520295203","-1.96642066420664","0","358.75"
"645.46875","-1.96678966789668","-1.44169741697417","-2.3859778597786","-3.02029520295203","3.03357933579336","0","358.75"
"648.5","-2.96678966789668","-3.44169741697417","-0.385977859778599","-3.02029520295203","3.03357933579336","0","358.75"
"651.53125","-2.96678966789668","-3.44169741697417","-0.385977859778599","-0.0202952029520295","2.03357933579336","0","358.75"
"654.5625","-2.96678966789668","-2.44169741697417","-0.385977859778599","-0.0202952029520295","2.03357933579336","0","358.75"
"657.59375","-2.96678966789668","-2.44169741697417","-0.385977859778599","-1.02029520295203","0.0335793357933579","0","358.75"
"660.625","-0.966789667896679","0.55830258302583","3.6140221402214","-1.02029520295203","0.0335793357933579","0","358.75"
"663.65625","-0.966789667896679","0.55830258302583","3.6140221402214","-1.02029520295203","2.03357933579336","0","358.75"
"666.6875","-0.966789667896679","-0.44169741697417","-1.3859778597786","-1.02029520295203","2.03357933579336","0","358.75"
"669.71875","-0.966789667896679","-0.44169741697417","-1.3859778597786","-2.02029520295203","3.03357933579336","0","358.75"
"672.75","-0.966789667896679","-2.44169741697417","-0.385977859778599","-2.02029520295203","3.03357933579336","0","358.75"
"675.78125","-0.966789667896679","-2.44169741697417","-0.385977859778599","-3.02029520295203","2.03357933579336","0","358.75"
"678.8125","-1.96678966789668","-1.44169741697417","-0.385977859778599","-3.02029520295203","2.03357933579336","0","358.75"
"681.84375","-1.96678966789668","-1.44169741697417","-0.385977859778599","1.97970479704797","-2.96642066420664","0","358.75"
"684.875","-1.96678966789668","-0.44169741697417","-0.385977859778599","1.97970479704797","-2.96642066420664","0","358.75"
"687.90625","-1.96678966789668","-0.44169741697417","-0.385977859778599","-0.0202952029520295","-0.966420664206642","0","358.75"
"690.9375","-3.96678966789668","-1.44169741697417","0.614022140221401","-0.0202952029520295","-0.966420664206642","0","358.75"
"693.96875","-3.96678966789668","-1.44169741697417","0.614022140221401","0.979704797047971","2.03357933579336","0","358.75"
"697","-0.966789667896679","-0.44169741697417","-0.385977859778599","0.979704797047971","2.03357933579336","0","358.75"
"703.06667","-0.966789667896679","-0.44169741697417","-0.385977859778599","-1.02029520295203","1.03357933579336","0","358.75"
"706.13333","-0.966789667896679","-2.44169741697417","-1.3859778597786","-1.02029520295203","1.03357933579336","0","358.75"
"709.2","-0.966789667896679","-2.44169741697417","-1.3859778597786","-2.02029520295203","-0.966420664206642","0","358.75"
"712.26667","-1.96678966789668","-1.44169741697417","-0.385977859778599","-2.02029520295203","-0.966420664206642","0","358.75"
"715.33333","-1.96678966789668","-1.44169741697417","-0.385977859778599","0.979704797047971","-0.966420664206642","0","358.75"
"718.4","0.0332103321033213","-7.44169741697417","1.6140221402214","0.979704797047971","-0.966420664206642","0","358.75"
"721.46667","0.0332103321033213","-7.44169741697417","1.6140221402214","6.97970479704797","-1.96642066420664","0","358.75"
"724.53333","-0.966789667896679","1.55830258302583","0.614022140221401","6.97970479704797","-1.96642066420664","0","358.75"
"727.6","-0.966789667896679","1.55830258302583","0.614022140221401","9.97970479704797","0.0335793357933579","0","358.75"
"730.66667","2.03321033210332","7.55830258302583","-2.3859778597786","9.97970479704797","0.0335793357933579","0","358.75"
"733.73333","2.03321033210332","7.55830258302583","-2.3859778597786","1.97970479704797","-0.966420664206642","0","358.75"
"736.8","-1.96678966789668","-8.44169741697417","0.614022140221401","1.97970479704797","-0.966420664206642","0","358.75"
"739.86667","-1.96678966789668","-8.44169741697417","0.614022140221401","-2.02029520295203","0.0335793357933579","0","358.75"
"742.93333","-1.96678966789668","-1.44169741697417","4.6140221402214","-2.02029520295203","0.0335793357933579","0","358.75"
"746","-1.96678966789668","-1.44169741697417","4.6140221402214","4.97970479704797","-1.96642066420664","0","358.75"
"749.06667","0.0332103321033213","0.55830258302583","1.6140221402214","4.97970479704797","-1.96642066420664","0","358.75"
"752.13333","0.0332103321033213","0.55830258302583","1.6140221402214","3.97970479704797","0.0335793357933579","0","358.75"
"755.2","-1.96678966789668","0.55830258302583","0.614022140221401","3.97970479704797","0.0335793357933579","0","358.75"
"758.26667","-1.96678966789668","0.55830258302583","0.614022140221401","-0.0202952029520295","-0.966420664206642","0","358.75"
"761.33333","-0.966789667896679","-2.44169741697417","-1.3859778597786","-0.0202952029520295","-0.966420664206642","0","358.75"
"764.4","-0.966789667896679","-2.44169741697417","-1.3859778597786","0.979704797047971","0.0335793357933579","0","358.75"
"767.46667","1.03321033210332","-0.44169741697417","0.614022140221401","0.979704797047971","0.0335793357933579","0","358.75"
"770.53333","1.03321033210332","-0.44169741697417","0.614022140221401","-0.0202952029520295","0.0335793357933579","0","358.75"
"773.6","-0.966789667896679","-0.44169741697417","-0.385977859778599","-0.0202952029520295","0.0335793357933579","0","358.75"
"776.66667","-0.966789667896679","-0.44169741697417","-0.385977859778599","1.97970479704797","0.0335793357933579","0","358.75"
"779.73333","1.03321033210332","-2.44169741697417","-0.385977859778599","1.97970479704797","0.0335793357933579","0","358.75"
"782.8","1.03321033210332","-2.44169741697417","-0.385977859778599","-1.02029520295203","0.0335793357933579","0","358.75"
"785.86667","1.03321033210332","-4.44169741697417","-0.385977859778599","-1.02029520295203","0.0335793357933579","0","358.75"
"788.93333","1.03321033210332","-4.44169741697417","-0.385977859778599","-2.02029520295203","-0.966420664206642","0","358.75"
"792","0.0332103321033213","-1.44169741697417","-0.385977859778599","-2.02029520295203","-0.966420664206642","0","358.75"
"800","0.0332103321033213","-1.44169741697417","-0.385977859778599","2.97970479704797","0.0335793357933579","0","358.75"
"803","0.0332103321033213","-0.44169741697417","0.614022140221401","2.97970479704797","0.0335793357933579","0","358.75"
"806","0.0332103321033213","-0.44169741697417","0.614022140221401","0.979704797047971","1.03357933579336","0","358.75"
"809","-0.966789667896679","-0.44169741697417","1.6140221402214","0.979704797047971","1.03357933579336","0","358.75"
"812","-0.966789667896679","-0.44169741697417","1.6140221402214","-1.02029520295203","2.03357933579336","0","358.75"
"815","0.0332103321033213","-0.44169741697417","-0.385977859778599","-1.02029520295203","2.03357933579336","0","358.75"
"818","0.0332103321033213","-0.44169741697417","-0.385977859778599","3.97970479704797","2.03357933579336","0","358.75"
"821","-0.966789667896679","-0.44169741697417","-0.385977859778599","3.97970479704797","2.03357933579336","0","358.75"
"824","-0.966789667896679","-0.44169741697417","-0.385977859778599","2.97970479704797","0.0335793357933579","0","358.75"
"827","1.03321033210332","-1.44169741697417","1.6140221402214","2.97970479704797","0.0335793357933579","0","358.75"
"830","1.03321033210332","-1.44169741697417","1.6140221402214","4.97970479704797","-0.966420664206642","0","358.75"
"833","0.0332103321033213","-1.44169741697417","-1.3859778597786","4.97970479704797","-0.966420664206642","0","358.75"
"836","0.0332103321033213","-1.44169741697417","-1.3859778597786","3.97970479704797","-0.966420664206642","0","358.75"
"839","-2.96678966789668","-2.44169741697417","-1.3859778597786","3.97970479704797","-0.966420664206642","0","358.75"
"842","-2.96678966789668","-2.44169741697417","-1.3859778597786","0.979704797047971","0.0335793357933579","0","358.75"
"845","1.03321033210332","1.55830258302583","1.6140221402214","0.979704797047971","0.0335793357933579","0","358.75"
"848","1.03321033210332","1.55830258302583","1.6140221402214","2.97970479704797","-3.96642066420664","0","358.75"
"851","-0.966789667896679","-2.44169741697417","-1.3859778597786","2.97970479704797","-3.96642066420664","0","358.75"
"854","-0.966789667896679","-2.44169741697417","-1.3859778597786","3.97970479704797","0.0335793357933579","0","358.75"
"857","1.03321033210332","-1.44169741697417","-3.3859778597786","3.97970479704797","0.0335793357933579","0","358.75"
"860","1.03321033210332","-1.44169741697417","-3.3859778597786","1.97970479704797","0.0335793357933579","0","358.75"
"863","-0.966789667896679","-2.44169741697417","-1.3859778597786","1.97970479704797","0.0335793357933579","0","358.75"
"866","-0.966789667896679","-2.44169741697417","-1.3859778597786","1.97970479704797","0.0335793357933579","0","358.75"
"869","0.0332103321033213","0.55830258302583","1.6140221402214","1.97970479704797","0.0335793357933579","0","358.75"
"872","0.0332103321033213","0.55830258302583","1.6140221402214","0.979704797047971","0.0335793357933579","0","358.75"
"875","-0.966789667896679","-1.44169741697417","-0.385977859778599","0.979704797047971","0.0335793357933579","0","358.75"
"878","-0.966789667896679","-1.44169741697417","-0.385977859778599","3.97970479704797","0.0335793357933579","0","358.75"
"881","-0.966789667896679","-2.44169741697417","0.614022140221401","3.97970479704797","0.0335793357933579","0","358.75"
"884","-0.966789667896679","-2.44169741697417","0.614022140221401","1.97970479704797","1.03357933579336","0","358.75"
"887","-0.966789667896679","-1.44169741697417","-1.3859778597786","1.97970479704797","1.03357933579336","0","358.75"
"890","-0.966789667896679","-1.44169741697417","-1.3859778597786","0.979704797047971","0.0335793357933579","0","358.75"
"893","1.03321033210332","-3.44169741697417","-1.3859778597786","0.979704797047971","0.0335793357933579","0","358.75"
"896","1.03321033210332","-3.44169741697417","-1.3859778597786","1.97970479704797","-0.966420664206642","0","358.75"
"899","-1.96678966789668","-1.44169741697417","0.614022140221401","1.97970479704797","-0.966420664206642","0","358.75"
"903","-1.96678966789668","-1.44169741697417","0.614022140221401","1.97970479704797","0.0335793357933579","0","358.75"
"906","0.0332103321033213","-0.44169741697417","-0.385977859778599","1.97970479704797","0.0335793357933579","0","358.75"
"909","0.0332103321033213","-0.44169741697417","-0.385977859778599","-0.0202952029520295","-0.966420664206642","0","358.75"
"912","0.0332103321033213","-1.44169741697417","-0.385977859778599","-0.0202952029520295","-0.966420664206642","0","358.75"
"915","0.0332103321033213","-1.44169741697417","-0.385977859778599","0.979704797047971","0.0335793357933579","0","358.75"
"918","-1.96678966789668","-1.44169741697417","-1.3859778597786","0.979704797047971","0.0335793357933579","0","358.75"
"921","-1.96678966789668","-1.44169741697417","-1.3859778597786","2.97970479704797","1.03357933579336","0","358.75"
"924","-0.966789667896679","-2.44169741697417","-0.385977859778599","2.97970479704797","1.03357933579336","0","358.75"
"927","-0.966789667896679","-2.44169741697417","-0.385977859778599","0.979704797047971","1.03357933579336","0","358.75"
"930","-0.966789667896679","1.55830258302583","1.6140221402214","0.979704797047971","1.03357933579336","0","358.75"
"933","-0.966789667896679","1.55830258302583","1.6140221402214","0.979704797047971","2.03357933579336","0","358.75"
"936","0.0332103321033213","0.55830258302583","0.614022140221401","0.979704797047971","2.03357933579336","0","358.75"
"939","0.0332103321033213","0.55830258302583","0.614022140221401","1.97970479704797","-0.966420664206642","0","358.75"
"942","-2.96678966789668","-1.44169741697417","-0.385977859778599","1.97970479704797","-0.966420664206642","0","358.75"
"945","-2.96678966789668","-1.44169741697417","-0.385977859778599","-0.0202952029520295","4.03357933579336","0","358.75"
"948","0.0332103321033213","-0.44169741697417","-1.3859778597786","-0.0202952029520295","4.03357933579336","0","358.75"
"951","0.0332103321033213","-0.44169741697417","-1.3859778597786","1.97970479704797","3.03357933579336","0","358.75"
"954","-0.966789667896679","-2.44169741697417","-0.385977859778599","1.97970479704797","3.03357933579336","0","358.75"
"957","-0.966789667896679","-2.44169741697417","-0.385977859778599","-0.0202952029520295","1.03357933579336","0","358.75"
"960","-0.966789667896679","0.55830258302583","1.6140221402214","-0.0202952029520295","1.03357933579336","0","358.75"
"963","-0.966789667896679","0.55830258302583","1.6140221402214","-1.02029520295203","2.03357933579336","0","358.75"
"966","0.0332103321033213","-1.44169741697417","-0.385977859778599","-1.02029520295203","2.03357933579336","0","358.75"
"969","0.0332103321033213","-1.44169741697417","-0.385977859778599","2.97970479704797","-2.96642066420664","0","358.75"
"972","-0.966789667896679","-3.44169741697417","-0.385977859778599","2.97970479704797","-2.96642066420664","0","358.75"
"975","-0.966789667896679","-3.44169741697417","-0.385977859778599","-0.0202952029520295","-0.966420664206642","0","358.75"
"978","-3.96678966789668","-1.44169741697417","-0.385977859778599","-0.0202952029520295","-0.966420664206642","0","358.75"
"981","-3.96678966789668","-1.44169741697417","-0.385977859778599","1.97970479704797","1.03357933579336","0","358.75"
"984","-0.966789667896679","-1.44169741697417","-2.3859778597786","1.97970479704797","1.03357933579336","0","358.75"
"987","-0.966789667896679","-1.44169741697417","-2.3859778597786","2.97970479704797","0.0335793357933579","0","358.75"
"990","0.0332103321033213","-2.44169741697417","-1.3859778597786","2.97970479704797","0.0335793357933579","0","358.75"
"993","0.0332103321033213","-2.44169741697417","-1.3859778597786","-0.0202952029520295","0.0335793357933579","0","358.75"
"996","-0.966789667896679","-2.44169741697417","-0.385977859778599","-0.0202952029520295","0.0335793357933579","0","358.75"
"1003.23333","-0.966789667896679","-2.44169741697417","-0.385977859778599","2.97970479704797","0.0335793357933579","0","358.75"
"1006.46667","-2.96678966789668","-1.44169741697417","1.6140221402214","2.97970479704797","0.0335793357933579","0","358.75"
"1009.7","-2.96678966789668","-1.44169741697417","1.6140221402214","0.979704797047971","1.03357933579336","0","358.75"
"1012.93333","0.0332103321033213","-0.44169741697417","-0.385977859778599","0.979704797047971","1.03357933579336","0","358.75"
"1016.16667","0.0332103321033213","-0.44169741697417","-0.385977859778599","-3.02029520295203","1.03357933579336","0","358.75"
"1019.4","-0.966789667896679","-1.44169741697417","0.614022140221401","-3.02029520295203","1.03357933579336","0","358.75"
"1022.63333","-0.966789667896679","-1.44169741697417","0.614022140221401","-2.02029520295203","-0.966420664206642","0","358.75"
"1025.86667","-0.966789667896679","-2.44169741697417","0.614022140221401","-2.02029520295203","-0.966420664206642","0","358.75"
"1029.1","-0.966789667896679","-2.44169741697417","0.614022140221401","-1.02029520295203","-0.966420664206642","0","358.75"
"1032.33333","0.0332103321033213","-0.44169741697417","1.6140221402214","-1.02029520295203","-0.966420664206642","0","358.75"
"1035.56667","0.0332103321033213","-0.44169741697417","1.6140221402214","-3.02029520295203","0.0335793357933579","0","358.75"
"1038.8","1.03321033210332","-1.44169741697417","0.614022140221401","-3.02029520295203","0.0335793357933579","0","358.75"
"1042.03333","1.03321033210332","-1.44169741697417","0.614022140221401","-3.02029520295203","0.0335793357933579","0","358.75"
"1045.26667","-1.96678966789668","-1.44169741697417","-1.3859778597786","-3.02029520295203","0.0335793357933579","0","358.75"
"1048.5","-1.96678966789668","-1.44169741697417","-1.3859778597786","-1.02029520295203","0.0335793357933579","0","358.75"
"1051.73333","-0.966789667896679","-2.44169741697417","-0.385977859778599","-1.02029520295203","0.0335793357933579","0","358.75"
"1054.96667","-0.966789667896679","-2.44169741697417","-0.385977859778599","-1.02029520295203","0.0335793357933579","0","358.75"
"1058.2","0.0332103321033213","-0.44169741697417","-0.385977859778599","-1.02029520295203","0.0335793357933579","0","358.75"
"1061.43333","0.0332103321033213","-0.44169741697417","-0.385977859778599","0.979704797047971","0.0335793357933579","0","358.75"
"1064.66667","-0.966789667896679","0.55830258302583","-0.385977859778599","0.979704797047971","0.0335793357933579","0","358.75"
"1067.9","-0.966789667896679","0.55830258302583","-0.385977859778599","-0.0202952029520295","-0.966420664206642","0","358.75"
"1071.13333","0.0332103321033213","-0.44169741697417","2.6140221402214","-0.0202952029520295","-0.966420664206642","0","358.75"
"1074.36667","0.0332103321033213","-0.44169741697417","2.6140221402214","-1.02029520295203","2.03357933579336","0","358.75"
"1077.6","-1.96678966789668","-0.44169741697417","-2.3859778597786","-1.02029520295203","2.03357933579336","0","358.75"
"1080.83333","-1.96678966789668","-0.44169741697417","-2.3859778597786","-1.02029520295203","1.03357933579336","0","358.75"
"1084.06667","1.03321033210332","-0.44169741697417","1.6140221402214","-1.02029520295203","1.03357933579336","0","358.75"
"1087.3","1.03321033210332","-0.44169741697417","1.6140221402214","-0.0202952029520295","-1.96642066420664","0","358.75"
"1090.53333","-1.96678966789668","-2.44169741697417","1.6140221402214","-0.0202952029520295","-1.96642066420664","0","358.75"
"1093.76667","-1.96678966789668","-2.44169741697417","1.6140221402214","1.97970479704797","-2.96642066420664","0","358.75"
"1097","-0.966789667896679","-0.44169741697417","1.6140221402214","1.97970479704797","-2.96642066420664","0","358.75"
"1102.91176","-0.966789667896679","-0.44169741697417","1.6140221402214","-2.02029520295203","0.0335793357933579","0","358.75"
"1105.82353","-1.96678966789668","-1.44169741697417","1.6140221402214","-2.02029520295203","0.0335793357933579","0","358.75"
"1108.73529","-1.96678966789668","-1.44169741697417","1.6140221402214","-2.02029520295203","1.03357933579336","0","358.75"
"1111.64706","-0.966789667896679","-1.44169741697417","-1.3859778597786","-2.02029520295203","1.03357933579336","0","358.75"
"1114.55882","-0.966789667896679","-1.44169741697417","-1.3859778597786","-2.02029520295203","0.0335793357933579","0","358.75"
"1117.47059","0.0332103321033213","0.55830258302583","-0.385977859778599","-2.02029520295203","0.0335793357933579","0","358.75"
"1120.38235","0.0332103321033213","0.55830258302583","-0.385977859778599","-0.0202952029520295","-0.966420664206642","0","358.75"
"1123.29412","0.0332103321033213","-0.44169741697417","0.614022140221401","-0.0202952029520295","-0.966420664206642","0","358.75"
"1126.20588","0.0332103321033213","-0.44169741697417","0.614022140221401","-0.0202952029520295","-0.966420664206642","0","358.75"
"1129.11765","-3.96678966789668","-0.44169741697417","-0.385977859778599","-0.0202952029520295","-0.966420664206642","0","358.75"
"1132.02941","-3.96678966789668","-0.44169741697417","-0.385977859778599","-3.02029520295203","1.03357933579336","0","358.75"
"1134.94118","1.03321033210332","-3.44169741697417","0.614022140221401","-3.02029520295203","1.03357933579336","0","358.75"
"1137.85294","1.03321033210332","-3.44169741697417","0.614022140221401","-2.02029520295203","2.03357933579336","0","358.75"
"1140.76471","-0.966789667896679","-0.44169741697417","-0.385977859778599","-2.02029520295203","2.03357933579336","0","358.75"
"1143.67647","-0.966789667896679","-0.44169741697417","-0.385977859778599","0.979704797047971","2.03357933579336","0","358.75"
"1146.58824","0.0332103321033213","-0.44169741697417","-0.385977859778599","0.979704797047971","2.03357933579336","0","358.75"
"1149.5","0.0332103321033213","-0.44169741697417","-0.385977859778599","-2.02029520295203","-1.96642066420664","0","358.75"
"1152.41176","-1.96678966789668","-1.44169741697417","-1.3859778597786","-2.02029520295203","-1.96642066420664","0","358.75"
"1155.32353","-1.96678966789668","-1.44169741697417","-1.3859778597786","0.979704797047971","-1.96642066420664","0","358.75"
"1158.23529","-0.966789667896679","-2.44169741697417","-0.385977859778599","0.979704797047971","-1.96642066420664","0","358.75"
"1161.14706","-0.966789667896679","-2.44169741697417","-0.385977859778599","0.979704797047971","0.0335793357933579","0","358.75"
"1164.05882","-1.96678966789668","1.55830258302583","-0.385977859778599","0.979704797047971","0.0335793357933579","0","358.75"
"1166.97059","-1.96678966789668","1.55830258302583","-0.385977859778599","0.979704797047971","0.0335793357933579","0","358.75"
"1169.88235","-0.966789667896679","-0.44169741697417","-3.3859778597786","0.979704797047971","0.0335793357933579","0","358.75"
"1172.79412","-0.966789667896679","-0.44169741697417","-3.3859778597786","-0.0202952029520295","2.03357933579336","0","358.75"
"1175.70588","0.0332103321033213","-2.44169741697417","-1.3859778597786","-0.0202952029520295","2.03357933579336","0","358.75"
"1178.61765","0.0332103321033213","-2.44169741697417","-1.3859778597786","-3.02029520295203","0.0335793357933579","0","358.75"
"1181.52941","1.03321033210332","-0.44169741697417","-0.385977859778599","-3.02029520295203","0.0335793357933579","0","358.75"
"1184.44118","1.03321033210332","-0.44169741697417","-0.385977859778599","-0.0202952029520295","1.03357933579336","0","358.75"
"1187.35294","-0.966789667896679","-0.44169741697417","2.6140221402214","-0.0202952029520295","1.03357933579336","0","358.75"
"1190.26471","-0.966789667896679","-0.44169741697417","2.6140221402214","-1.02029520295203","0.0335793357933579","0","358.75"
"1193.17647","0.0332103321033213","-0.44169741697417","3.6140221402214","-1.02029520295203","0.0335793357933579","0","358.75"
"1196.08824","0.0332103321033213","-0.44169741697417","3.6140221402214","-3.02029520295203","-0.966420664206642","0","358.75"
"1199","-1.96678966789668","-2.44169741697417","-0.385977859778599","-3.02029520295203","-0.966420664206642","0","358.75"
"1203.26667","-1.96678966789668","-2.44169741697417","-0.385977859778599","0.979704797047971","-0.966420664206642","0","358.75"
"1206.53333","0.0332103321033213","-1.44169741697417","-1.3859778597786","0.979704797047971","-0.966420664206642","0","358.75"
"1209.8","0.0332103321033213","-1.44169741697417","-1.3859778597786","-1.02029520295203","-0.966420664206642","0","358.75"
"1213.06667","-3.96678966789668","-1.44169741697417","-0.385977859778599","-1.02029520295203","-0.966420664206642","0","358.75"
"1216.33333","-3.96678966789668","-1.44169741697417","-0.385977859778599","1.97970479704797","-2.96642066420664","0","358.75"
"1219.6","-0.966789667896679","-0.44169741697417","-0.385977859778599","1.97970479704797","-2.96642066420664","0","358.75"
"1222.86667","-0.966789667896679","-0.44169741697417","-0.385977859778599","-1.02029520295203","1.03357933579336","0","358.75"
"1226.13333","0.0332103321033213","-2.44169741697417","-1.3859778597786","-1.02029520295203","1.03357933579336","0","358.75"
"1229.4","0.0332103321033213","-2.44169741697417","-1.3859778597786","0.979704797047971","1.03357933579336","0","358.75"
"1232.66667","-0.966789667896679","-2.44169741697417","0.614022140221401","0.979704797047971","1.03357933579336","0","358.75"
"1235.93333","-0.966789667896679","-2.44169741697417","0.614022140221401","-1.02029520295203","-1.96642066420664","0","358.75"
"1239.2","-3.96678966789668","-0.44169741697417","-0.385977859778599","-1.02029520295203","-1.96642066420664","0","358.75"
"1242.46667","-3.96678966789668","-0.44169741697417","-0.385977859778599","1.97970479704797","0.0335793357933579","0","358.75"
"1245.73333","-3.96678966789668","-0.44169741697417","-0.385977859778599","1.97970479704797","0.0335793357933579","0","358.75"
"1249","-3.96678966789668","-0.44169741697417","-0.385977859778599","-1.02029520295203","0.0335793357933579","0","358.75"
"1252.26667","1.03321033210332","-1.44169741697417","0.614022140221401","-1.02029520295203","0.0335793357933579","0","358.75"
"1255.53333","1.03321033210332","-1.44169741697417","0.614022140221401","-3.02029520295203","-2.96642066420664","0","358.75"
"1258.8","0.0332103321033213","0.55830258302583","-0.385977859778599","-3.02029520295203","-2.96642066420664","0","358.75"
"1262.06667","0.0332103321033213","0.55830258302583","-0.385977859778599","0.979704797047971","-0.966420664206642","0","358.75"
"1265.33333","-1.96678966789668","-2.44169741697417","-2.3859778597786","0.979704797047971","-0.966420664206642","0","358.75"
"1268.6","-1.96678966789668","-2.44169741697417","-2.3859778597786","-2.02029520295203","-1.96642066420664","0","358.75"
"1271.86667","-2.96678966789668","0.55830258302583","0.614022140221401","-2.02029520295203","-1.96642066420664","0","358.75"
"1275.13333","-2.96678966789668","0.55830258302583","0.614022140221401","-1.02029520295203","2.03357933579336","0","358.75"
"1278.4","-2.96678966789668","-1.44169741697417","-0.385977859778599","-1.02029520295203","2.03357933579336","0","358.75"
"1281.66667","-2.96678966789668","-1.44169741697417","-0.385977859778599","-4.02029520295203","3.03357933579336","0","358.75"
"1284.93333","-0.966789667896679","1.55830258302583","1.6140221402214","-4.02029520295203","3.03357933579336","0","358.75"
"1288.2","-0.966789667896679","1.55830258302583","1.6140221402214","1.97970479704797","1.03357933579336","0","358.75"
"1291.46667","-0.966789667896679","-0.44169741697417","-0.385977859778599","1.97970479704797","1.03357933579336","0","358.75"
"1294.73333","-0.966789667896679","-0.44169741697417","-0.385977859778599","-0.0202952029520295","0.0335793357933579","0","358.75"
"1298","-0.966789667896679","-0.44169741697417","-2.3859778597786","-0.0202952029520295","0.0335793357933579","0","358.75"
"1303.09375","-0.966789667896679","-0.44169741697417","-2.3859778597786","-4.02029520295203","-1.96642066420664","0","358.75"
"1306.1875","-0.966789667896679","-1.44169741697417","-0.385977859778599","-4.02029520295203","-1.96642066420664","0","358.75"
"1309.28125","-0.966789667896679","-1.44169741697417","-0.385977859778599","-2.02029520295203","-2.96642066420664","0","358.75"
"1312.375","-1.96678966789668","-0.44169741697417","-1.3859778597786","-2.02029520295203","-2.96642066420664","0","358.75"
"1315.46875","-1.96678966789668","-0.44169741697417","-1.3859778597786","-0.0202952029520295","0.0335793357933579","0","358.75"
"1318.5625","-0.966789667896679","-1.44169741697417","3.6140221402214","-0.0202952029520295","0.0335793357933579","0","358.75"
"1321.65625","-0.966789667896679","-1.44169741697417","3.6140221402214","-0.0202952029520295","0.0335793357933579","0","358.75"
"1324.75","-1.96678966789668","-0.44169741697417","-0.385977859778599","-0.0202952029520295","0.0335793357933579","0","358.75"
"1327.84375","-1.96678966789668","-0.44169741697417","-0.385977859778599","0.979704797047971","1.03357933579336","0","358.75"
"1330.9375","-0.966789667896679","-0.44169741697417","-0.385977859778599","0.979704797047971","1.03357933579336","0","358.75"
"1334.03125","-0.966789667896679","-0.44169741697417","-0.385977859778599","1.97970479704797","1.03357933579336","0","358.75"
"1337.125","-1.96678966789668","-0.44169741697417","-0.385977859778599","1.97970479704797","1.03357933579336","0","358.75"
"1340.21875","-1.96678966789668","-0.44169741697417","-0.385977859778599","1.97970479704797","-0.966420664206642","0","358.75"
"1343.3125","0.0332103321033213","0.55830258302583","1.6140221402214","1.97970479704797","-0.966420664206642","0","358.75"
"1346.40625","0.0332103321033213","0.55830258302583","1.6140221402214","-1.02029520295203","1.03357933579336","0","358.75"
"1349.5","-3.96678966789668","-2.44169741697417","3.6140221402214","-1.02029520295203","1.03357933579336","0","358.75"
"1352.59375","-3.96678966789668","-2.44169741697417","3.6140221402214","-0.0202952029520295","-0.966420664206642","0","358.75"
"1355.6875","-2.96678966789668","-1.44169741697417","-0.385977859778599","-0.0202952029520295","-0.966420664206642","0","358.75"
"1358.78125","-2.96678966789668","-1.44169741697417","-0.385977859778599","0.979704797047971","2.03357933579336","0","358.75"
"1361.875","0.0332103321033213","-1.44169741697417","1.6140221402214","0.979704797047971","2.03357933579336","0","358.75"
"1364.96875","0.0332103321033213","-1.44169741697417","1.6140221402214","2.97970479704797","1.03357933579336","0","358.75"
"1368.0625","-3.96678966789668","-0.44169741697417","0.614022140221401","2.97970479704797","1.03357933579336","0","358.75"
"1371.15625","-3.96678966789668","-0.44169741697417","0.614022140221401","-0.0202952029520295","-0.966420664206642","0","358.75"
"1374.25","-1.96678966789668","0.55830258302583","0.614022140221401","-0.0202952029520295","-0.966420664206642","0","358.75"
"1377.34375","-1.96678966789668","0.55830258302583","0.614022140221401","2.97970479704797","0.0335793357933579","0","358.75"
"1380.4375","-1.96678966789668","-2.44169741697417","-0.385977859778599","2.97970479704797","0.0335793357933579","0","358.75"
"1383.53125","-1.96678966789668","-2.44169741697417","-0.385977859778599","1.97970479704797","1.03357933579336","0","358.75"
"1386.625","-0.966789667896679","-4.44169741697417","2.6140221402214","1.97970479704797","1.03357933579336","0","358.75"
"1389.71875","-0.966789667896679","-4.44169741697417","2.6140221402214","0.979704797047971","-0.966420664206642","0","358.75"
"1392.8125","-1.96678966789668","-0.44169741697417","-1.3859778597786","0.979704797047971","-0.966420664206642","0","358.75"
"1395.90625","-1.96678966789668","-0.44169741697417","-1.3859778597786","0.979704797047971","0.0335793357933579","0","358.75"
"1399","0.0332103321033213","-1.44169741697417","0.614022140221401","0.979704797047971","0.0335793357933579","0","358.75"
"1403.35714","0.0332103321033213","-1.44169741697417","0.614022140221401","0.979704797047971","2.03357933579336","0","358.75"
"1406.71429","1.03321033210332","-0.44169741697417","0.614022140221401","0.979704797047971","2.03357933579336","0","358.75"
"1410.07143","1.03321033210332","-0.44169741697417","0.614022140221401","0.979704797047971","0.0335793357933579","0","358.75"
"1413.42857","-0.966789667896679","-0.44169741697417","-2.3859778597786","0.979704797047971","0.0335793357933579","0","358.75"
"1416.78571","-0.966789667896679","-0.44169741697417","-2.3859778597786","3.97970479704797","0.0335793357933579","0","358.75"
"1420.14286","-1.96678966789668","-0.44169741697417","-1.3859778597786","3.97970479704797","0.0335793357933579","0","358.75"
"1423.5","-1.96678966789668","-0.44169741697417","-1.3859778597786","-0.0202952029520295","0.0335793357933579","0","358.75"
"1426.85714","-0.966789667896679","-2.44169741697417","0.614022140221401","-0.0202952029520295","0.0335793357933579","0","358.75"
"1430.21429","-0.966789667896679","-2.44169741697417","0.614022140221401","-0.0202952029520295","-2.96642066420664","0","358.75"
"1433.57143","-1.96678966789668","0.55830258302583","1.6140221402214","-0.0202952029520295","-2.96642066420664","0","358.75"
"1436.92857","-1.96678966789668","0.55830258302583","1.6140221402214","-0.0202952029520295","-0.966420664206642","0","358.75"
"1440.28571","-0.966789667896679","-0.44169741697417","-0.385977859778599","-0.0202952029520295","-0.966420664206642","0","358.75"
"1443.64286","-0.966789667896679","-0.44169741697417","-0.385977859778599","-2.02029520295203","-1.96642066420664","0","358.75"
"1447","-1.96678966789668","-1.44169741697417","0.614022140221401","-2.02029520295203","-1.96642066420664","0","358.75"
"1450.35714","-1.96678966789668","-1.44169741697417","0.614022140221401","-2.02029520295203","-1.96642066420664","0","358.75"
"1453.71429","-2.96678966789668","-0.44169741697417","-0.385977859778599","-2.02029520295203","-1.96642066420664","0","358.75"
"1457.07143","-2.96678966789668","-0.44169741697417","-0.385977859778599","1.97970479704797","2.03357933579336","0","358.75"
"1460.42857","-1.96678966789668","-2.44169741697417","-0.385977859778599","1.97970479704797","2.03357933579336","0","358.75"
"1463.78571","-1.96678966789668","-2.44169741697417","-0.385977859778599","3.97970479704797","-0.966420664206642","0","358.75"
"1467.14286","-1.96678966789668","-2.44169741697417","0.614022140221401","3.97970479704797","-0.966420664206642","0","358.75"
"1470.5","-1.96678966789668","-2.44169741697417","0.614022140221401","1.97970479704797","1.03357933579336","0","358.75"
"1473.85714","0.0332103321033213","-1.44169741697417","1.6140221402214","1.97970479704797","1.03357933579336","0","358.75"
"1477.21429","0.0332103321033213","-1.44169741697417","1.6140221402214","1.97970479704797","2.03357933579336","0","358.75"
"1480.57143","-0.966789667896679","0.55830258302583","-0.385977859778599","1.97970479704797","2.03357933579336","0","358.75"
"1483.92857","-0.966789667896679","0.55830258302583","-0.385977859778599","-0.0202952029520295","2.03357933579336","0","358.75"
"1487.28571","-1.96678966789668","0.55830258302583","0.614022140221401","-0.0202952029520295","2.03357933579336","0","358.75"
"1490.64286","-1.96678966789668","0.55830258302583","0.614022140221401","0.979704797047971","1.03357933579336","0","358.75"
"1494","0.0332103321033213","-0.44169741697417","2.6140221402214","0.979704797047971","1.03357933579336","0","358.75"
"1500","0.0332103321033213","-0.44169741697417","2.6140221402214","-0.0202952029520295","1.03357933579336","0","358.75"
"1500","-2.96678966789668","-2.44169741697417","0.614022140221401","-0.0202952029520295","1.03357933579336","0","358.75"
"1503.2069","-2.96678966789668","-2.44169741697417","0.614022140221401","-1.02029520295203","-0.966420664206642","0","358.75"
"1506.41379","-0.966789667896679","-1.44169741697417","0.614022140221401","-1.02029520295203","-0.966420664206642","0","358.75"
"1509.62069","-0.966789667896679","-1.44169741697417","0.614022140221401","-1.02029520295203","-0.966420664206642","0","358.75"
"1512.82759","-0.966789667896679","-1.44169741697417","0.614022140221401","-1.02029520295203","-0.966420664206642","0","358.75"
"1516.03448","-0.966789667896679","-1.44169741697417","0.614022140221401","-1.02029520295203","-0.966420664206642","0","358.75"
"1519.24138","0.0332103321033213","-1.44169741697417","-0.385977859778599","-1.02029520295203","-0.966420664206642","0","358.75"
"1522.44828","0.0332103321033213","-1.44169741697417","-0.385977859778599","0.979704797047971","-0.966420664206642","0","358.75"
"1525.65517","-1.96678966789668","-1.44169741697417","-1.3859778597786","0.979704797047971","-0.966420664206642","0","358.75"
"1528.86207","-1.96678966789668","-1.44169741697417","-1.3859778597786","-1.02029520295203","-0.966420664206642","0","358.75"
"1532.06897","-2.96678966789668","-2.44169741697417","0.614022140221401","-1.02029520295203","-0.966420664206642","0","358.75"
"1535.27586","-2.96678966789668","-2.44169741697417","0.614022140221401","0.979704797047971","-2.96642066420664","0","358.75"
"1538.48276","1.03321033210332","-0.44169741697417","-1.3859778597786","0.979704797047971","-2.96642066420664","0","358.75"
"1541.68966","1.03321033210332","-0.44169741697417","-1.3859778597786","2.97970479704797","0.0335793357933579","0","358.75"
"1544.89655","-0.966789667896679","0.55830258302583","-0.385977859778599","2.97970479704797","0.0335793357933579","0","358.75"
"1548.10345","-0.966789667896679","0.55830258302583","-0.385977859778599","-0.0202952029520295","-0.966420664206642","0","358.75"
"1551.31034","-0.966789667896679","-0.44169741697417","1.6140221402214","-0.0202952029520295","-0.966420664206642","0","358.75"
"1554.51724","-0.966789667896679","-0.44169741697417","1.6140221402214","-2.02029520295203","0.0335793357933579","0","358.75"
"1557.72414","-0.966789667896679","-0.44169741697417","1.6140221402214","-7.02029520295203","-2.96642066420664","0","358.75"
"1560.93103","18.0332103321033","-27.4416974169742","25.6140221402214","-7.02029520295203","-2.96642066420664","0","358.75"
"1564.13793","18.0332103321033","-27.4416974169742","25.6140221402214","3.97970479704797","0.0335793357933579","0","358.75"
"1567.34483","7.03321033210332","-4.44169741697417","2.6140221402214","3.97970479704797","0.0335793357933579","0","358.75"
"1570.55172","7.03321033210332","-4.44169741697417","2.6140221402214","15.979704797048","2.03357933579336","0","358.75"
"1573.75862","-11.9667896678967","-19.4416974169742","5.6140221402214","15.979704797048","2.03357933579336","0","358.75"
"1576.96552","-11.9667896678967","-19.4416974169742","5.6140221402214","-7.02029520295203","-2.96642066420664","0","358.75"
"1580.17241","18.0332103321033","-27.4416974169742","25.6140221402214","-7.02029520295203","-2.96642066420664","0","358.75"
"1583.37931","18.0332103321033","-27.4416974169742","25.6140221402214","-7.02029520295203","-2.96642066420664","0","358.75"
"1586.58621","18.0332103321033","-27.4416974169742","25.6140221402214","-7.02029520295203","-2.96642066420664","0","358.75"
"1589.7931","18.0332103321033","-27.4416974169742","25.6140221402214","3.97970479704797","0.0335793357933579","0","358.75"
"1593","7.03321033210332","-4.44169741697417","2.6140221402214","3.97970479704797","0.0335793357933579","0","358.75"
"1600","7.03321033210332","-4.44169741697417","2.6140221402214","15.979704797048","2.03357933579336","0","358.75"
"1600","-11.9667896678967","-19.4416974169742","5.6140221402214","15.979704797048","2.03357933579336","0","358.75"
"1603.3","-11.9667896678967","-19.4416974169742","5.6140221402214","-4.02029520295203","-5.96642066420664","0","358.75"
"1606.6","9.03321033210332","2.55830258302583","-0.385977859778599","-4.02029520295203","-5.96642066420664","0","358.75"
"1609.9","9.03321033210332","2.55830258302583","-0.385977859778599","-10.020295202952","-0.966420664206642","0","358.75"
"1613.2","3.03321033210332","4.55830258302583","5.6140221402214","-10.020295202952","-0.966420664206642","0","358.75"
"1616.5","3.03321033210332","4.55830258302583","5.6140221402214","2.97970479704797","-3.96642066420664","0","358.75"
"1619.8","3.03321033210332","4.55830258302583","5.6140221402214","2.97970479704797","-3.96642066420664","0","358.75"
"1623.1","3.03321033210332","4.55830258302583","5.6140221402214","4.97970479704797","-0.966420664206642","0","358.75"
"1626.4","14.0332103321033","-13.4416974169742","3.6140221402214","4.97970479704797","-0.966420664206642","0","358.75"
"1629.7","14.0332103321033","-13.4416974169742","3.6140221402214","4.97970479704797","3.03357933579336","0","358.75"
"1633","3.03321033210332","-3.44169741697417","10.6140221402214","4.97970479704797","3.03357933579336","0","358.75"
"1636.3","3.03321033210332","-3.44169741697417","10.6140221402214","-7.02029520295203","-2.96642066420664","0","358.75"
"1639.6","14.0332103321033","9.55830258302583","4.6140221402214","-7.02029520295203","-2.96642066420664","0","358.75"
"1642.9","14.0332103321033","9.55830258302583","4.6140221402214","-1.02029520295203","0.0335793357933579","0","358.75"
"1646.2","-14.9667896678967","7.55830258302583","-13.3859778597786","-1.02029520295203","0.0335793357933579","0","358.75"
"1649.5","-14.9667896678967","7.55830258302583","-13.3859778597786","3.97970479704797","0.0335793357933579","0","358.75"
"1652.8","-14.9667896678967","7.55830258302583","-13.3859778597786","3.97970479704797","0.0335793357933579","0","358.75"
"1656.1","-14.9667896678967","7.55830258302583","-13.3859778597786","-7.02029520295203","2.03357933579336","0","358.75"
"1659.4","5.03321033210332","5.55830258302583","-0.385977859778599","-7.02029520295203","2.03357933579336","0","358.75"
"1662.7","5.03321033210332","5.55830258302583","-0.385977859778599","-10.020295202952","1.03357933579336","0","358.75"
"1666","3.03321033210332","10.5583025830258","-0.385977859778599","-10.020295202952","1.03357933579336","0","358.75"
"1669.3","3.03321033210332","10.5583025830258","-0.385977859778599","9.97970479704797","-2.96642066420664","0","358.75"
"1672.6","-1.96678966789668","-11.4416974169742","3.6140221402214","9.97970479704797","-2.96642066420664","0","358.75"
"1675.9","-1.96678966789668","-11.4416974169742","3.6140221402214","8.97970479704797","-0.966420664206642","0","358.75"
"1679.2","5.03321033210332","-2.44169741697417","-2.3859778597786","8.97970479704797","-0.966420664206642","0","358.75"
"1682.5","5.03321033210332","-2.44169741697417","-2.3859778597786","-7.02029520295203","2.03357933579336","0","358.75"
"1685.8","5.03321033210332","-2.44169741697417","-2.3859778597786","-7.02029520295203","2.03357933579336","0","358.75"
"1689.1","5.03321033210332","-2.44169741697417","-2.3859778597786","-1.02029520295203","-1.96642066420664","0","358.75"
"1692.4","3.03321033210332","-8.44169741697417","15.6140221402214","-1.02029520295203","-1.96642066420664","0","358.75"
"1695.7","3.03321033210332","-8.44169741697417","15.6140221402214","1.97970479704797","0.0335793357933579","0","358.75"
"1699","-9.96678966789668","9.55830258302583","-9.3859778597786","1.97970479704797","0.0335793357933579","0","358.75"
"1703.09375","-9.96678966789668","9.55830258302583","-9.3859778597786","-2.02029520295203","2.03357933579336","0","358.75"
"1706.1875","-2.96678966789668","-9.44169741697417","1.6140221402214","-2.02029520295203","2.03357933579336","0","358.75"
"1709.28125","-2.96678966789668","-9.44169741697417","1.6140221402214","2.97970479704797","2.03357933579336","0","358.75"
"1712.375","5.03321033210332","-10.4416974169742","6.6140221402214","2.97970479704797","2.03357933579336","0","358.75"
"1715.46875","5.03321033210332","-10.4416974169742","6.6140221402214","-5.02029520295203","0.0335793357933579","0","358.75"
"1718.5625","5.03321033210332","-10.4416974169742","6.6140221402214","-5.02029520295203","0.0335793357933579","0","358.75"
"1721.65625","5.03321033210332","-10.4416974169742","6.6140221402214","-3.02029520295203","1.03357933579336","0","358.75"
"1724.75","-3.96678966789668","4.55830258302583","-0.385977859778599","-3.02029520295203","1.03357933579336","0","358.75"
"1727.84375","-3.96678966789668","4.55830258302583","-0.385977859778599","4.97970479704797","0.0335793357933579","0","358.75"
"1730.9375","-4.96678966789668","-8.44169741697417","-1.3859778597786","4.97970479704797","0.0335793357933579","0","358.75"
"1734.03125","-4.96678966789668","-8.44169741697417","-1.3859778597786","2.97970479704797","1.03357933579336","0","358.75"
"1737.125","-0.966789667896679","-1.44169741697417","4.6140221402214","2.97970479704797","1.03357933579336","0","358.75"
"1740.21875","-0.966789667896679","-1.44169741697417","4.6140221402214","-8.02029520295203","4.03357933579336","0","358.75"
"1743.3125","2.03321033210332","17.5583025830258","1.6140221402214","-8.02029520295203","4.03357933579336","0","358.75"
"1746.40625","2.03321033210332","17.5583025830258","1.6140221402214","2.97970479704797","-0.966420664206642","0","358.75"
"1749.5","2.03321033210332","17.5583025830258","1.6140221402214","2.97970479704797","-0.966420664206642","0","358.75"
"1752.59375","2.03321033210332","17.5583025830258","1.6140221402214","9.97970479704797","-1.96642066420664","0","358.75"
"1755.6875","4.03321033210332","-11.4416974169742","4.6140221402214","9.97970479704797","-1.96642066420664","0","358.75"
"1758.78125","4.03321033210332","-11.4416974169742","4.6140221402214","0.979704797047971","1.03357933579336","0","358.75"
"1761.875","-0.966789667896679","-10.4416974169742","-0.385977859778599","0.979704797047971","1.03357933579336","0","358.75"
"1764.96875","-0.966789667896679","-10.4416974169742","-0.385977859778599","-7.02029520295203","-0.966420664206642","0","358.75"
"1768.0625","4.03321033210332","7.55830258302583","0.614022140221401","-7.02029520295203","-0.966420664206642","0","358.75"
"1771.15625","4.03321033210332","7.55830258302583","0.614022140221401","0.979704797047971","0.0335793357933579","0","358.75"
"1774.25","-9.96678966789668","15.5583025830258","-5.3859778597786","0.979704797047971","0.0335793357933579","0","358.75"
"1777.34375","-9.96678966789668","15.5583025830258","-5.3859778597786","7.97970479704797","-1.96642066420664","0","358.75"
"1780.4375","-9.96678966789668","15.5583025830258","-5.3859778597786","7.97970479704797","-1.96642066420664","0","358.75"
"1783.53125","-9.96678966789668","15.5583025830258","-5.3859778597786","2.97970479704797","2.03357933579336","0","358.75"
"1786.625","3.03321033210332","-6.44169741697417","0.614022140221401","2.97970479704797","2.03357933579336","0","358.75"
"1789.71875","3.03321033210332","-6.44169741697417","0.614022140221401","-5.02029520295203","-0.966420664206642","0","358.75"
"1792.8125","0.0332103321033213","-0.44169741697417","-0.385977859778599","-5.02029520295203","-0.966420664206642","0","358.75"
"1795.90625","0.0332103321033213","-0.44169741697417","-0.385977859778599","-2.02029520295203","0.0335793357933579","0","358.75"
"1799","3.03321033210332","-4.44169741697417","3.6140221402214","-2.02029520295203","0.0335793357933579","0","358.75"
"1803.3","3.03321033210332","-4.44169741697417","3.6140221402214","2.97970479704797","-0.966420664206642","0","358.75"
"1806.6","1.03321033210332","-8.44169741697417","2.6140221402214","2.97970479704797","-0.966420664206642","0","358.75"
"1809.9","1.03321033210332","-8.44169741697417","2.6140221402214","1.97970479704797","0.0335793357933579","0","358.75"
"1813.2","1.03321033210332","-8.44169741697417","2.6140221402214","1.97970479704797","0.0335793357933579","0","358.75"
"1816.5","1.03321033210332","-8.44169741697417","2.6140221402214","-2.02029520295203","1.03357933579336","0","358.75"
"1819.8","1.03321033210332","0.55830258302583","-1.3859778597786","-2.02029520295203","1.03357933579336","0","358.75"
"1823.1","1.03321033210332","0.55830258302583","-1.3859778597786","-0.0202952029520295","0.0335793357933579","0","358.75"
"1826.4","2.03321033210332","-3.44169741697417","-2.3859778597786","-0.0202952029520295","0.0335793357933579","0","358.75"
"1829.7","2.03321033210332","-3.44169741697417","-2.3859778597786","0.979704797047971","4.03357933579336","0","358.75"
"1833","3.03321033210332","-6.44169741697417","0.614022140221401","0.979704797047971","4.03357933579336","0","358.75"
"1836.3","3.03321033210332","-6.44169741697417","0.614022140221401","-1.02029520295203","2.03357933579336","0","358.75"
"1839.6","3.03321033210332","-1.44169741697417","1.6140221402214","-1.02029520295203","2.03357933579336","0","358.75"
"1842.9","3.03321033210332","-1.44169741697417","1.6140221402214","-1.02029520295203","2.03357933579336","0","358.75"
"1846.2","3.03321033210332","-1.44169741697417","1.6140221402214","-1.02029520295203","2.03357933579336","0","358.75"
"1849.5","3.03321033210332","-1.44169741697417","1.6140221402214","-2.02029520295203","3.03357933579336","0","358.75"
"1852.8","-2.96678966789668","-1.44169741697417","1.6140221402214","-2.02029520295203","3.03357933579336","0","358.75"
"1856.1","-2.96678966789668","-1.44169741697417","1.6140221402214","-0.0202952029520295","2.03357933579336","0","358.75"
"1859.4","1.03321033210332","2.55830258302583","-1.3859778597786","-0.0202952029520295","2.03357933579336","0","358.75"
"1862.7","1.03321033210332","2.55830258302583","-1.3859778597786","2.97970479704797","0.0335793357933579","0","358.75"
"1866","0.0332103321033213","2.55830258302583","-1.3859778597786","2.97970479704797","0.0335793357933579","0","358.75"
"1869.3","0.0332103321033213","2.55830258302583","-1.3859778597786","-0.0202952029520295","1.03357933579336","0","358.75"
"1872.6","1.03321033210332","-0.44169741697417","1.6140221402214","-0.0202952029520295","1.03357933579336","0","358.75"
"1875.9","1.03321033210332","-0.44169741697417","1.6140221402214","4.97970479704797","1.03357933579336","0","358.75"
"1879.2","1.03321033210332","-0.44169741697417","1.6140221402214","4.97970479704797","1.03357933579336","0","358.75"
"1882.5","1.03321033210332","-0.44169741697417","1.6140221402214","-1.02029520295203","3.03357933579336","0","358.75"
"1885.8","-2.96678966789668","-0.44169741697417","-1.3859778597786","-1.02029520295203","3.03357933579336","0","358.75"
"1889.1","-2.96678966789668","-0.44169741697417","-1.3859778597786","-0.0202952029520295","2.03357933579336","0","358.75"
"1892.4","-2.96678966789668","-0.44169741697417","-1.3859778597786","-0.0202952029520295","2.03357933579336","0","358.75"
"1895.7","-2.96678966789668","-0.44169741697417","-1.3859778597786","-3.02029520295203","1.03357933579336","0","358.75"
"1899","-2.96678966789668","-2.44169741697417","-0.385977859778599","-3.02029520295203","1.03357933579336","0","358.75"
"1902.91176","-2.96678966789668","-2.44169741697417","-0.385977859778599","-3.02029520295203","1.03357933579336","0","358.75"
"1905.82353","-3.96678966789668","-4.44169741697417","-1.3859778597786","-3.02029520295203","1.03357933579336","0","358.75"
"1908.73529","-3.96678966789668","-4.44169741697417","-1.3859778597786","0.979704797047971","2.03357933579336","0","358.75"
"1911.64706","-3.96678966789668","-4.44169741697417","-1.3859778597786","0.979704797047971","2.03357933579336","0","358.75"
"1914.55882","-3.96678966789668","-4.44169741697417","-1.3859778597786","-1.02029520295203","2.03357933579336","0","358.75"
"1917.47059","-3.96678966789668","-4.44169741697417","-1.3859778597786","-1.02029520295203","2.03357933579336","0","358.75"
"1920.38235","-3.96678966789668","-4.44169741697417","-1.3859778597786","-1.02029520295203","-0.966420664206642","0","358.75"
"1923.29412","-3.96678966789668","-6.44169741697417","-0.385977859778599","-1.02029520295203","-0.966420664206642","0","358.75"
"1926.20588","-3.96678966789668","-6.44169741697417","-0.385977859778599","1.97970479704797","-0.966420664206642","0","358.75"
"1929.11765","-1.96678966789668","-3.44169741697417","1.6140221402214","1.97970479704797","-0.966420664206642","0","358.75"
"1932.02941","-1.96678966789668","-3.44169741697417","1.6140221402214","-3.02029520295203","-0.966420664206642","0","358.75"
"1934.94118","-1.96678966789668","-2.44169741697417","-0.385977859778599","-3.02029520295203","-0.966420664206642","0","358.75"
"1937.85294","-1.96678966789668","-2.44169741697417","-0.385977859778599","2.97970479704797","-0.966420664206642","0","358.75"
"1940.76471","-1.96678966789668","-2.44169741697417","-0.385977859778599","2.97970479704797","-0.966420664206642","0","358.75"
"1943.67647","-1.96678966789668","-2.44169741697417","-0.385977859778599","4.97970479704797","-0.966420664206642","0","358.75"
"1946.58824","-1.96678966789668","-0.44169741697417","-0.385977859778599","4.97970479704797","-0.966420664206642","0","358.75"
"1949.5","-1.96678966789668","-0.44169741697417","-0.385977859778599","0.979704797047971","-2.96642066420664","0","358.75"
"1952.41176","2.03321033210332","0.55830258302583","-1.3859778597786","0.979704797047971","-2.96642066420664","0","358.75"
"1955.32353","2.03321033210332","0.55830258302583","-1.3859778597786","1.97970479704797","-2.96642066420664","0","358.75"
"1958.23529","0.0332103321033213","2.55830258302583","0.614022140221401","1.97970479704797","-2.96642066420664","0","358.75"
"1961.14706","0.0332103321033213","2.55830258302583","0.614022140221401","2.97970479704797","-0.966420664206642","0","358.75"
"1964.05882","3.03321033210332","-0.44169741697417","0.614022140221401","2.97970479704797","-0.966420664206642","0","358.75"
"1966.97059","3.03321033210332","-0.44169741697417","0.614022140221401","-0.0202952029520295","1.03357933579336","0","358.75"
"1969.88235","3.03321033210332","-0.44169741697417","0.614022140221401","-0.0202952029520295","1.03357933579336","0","358.75"
"1972.79412","3.03321033210332","-0.44169741697417","0.614022140221401","-1.02029520295203","0.0335793357933579","0","358.75"
"1975.70588","1.03321033210332","0.55830258302583","0.614022140221401","-1.02029520295203","0.0335793357933579","0","358.75"
"1978.61765","1.03321033210332","0.55830258302583","0.614022140221401","3.97970479704797","0.0335793357933579","0","358.75"
"1981.52941","-1.96678966789668","-0.44169741697417","-0.385977859778599","3.97970479704797","0.0335793357933579","0","358.75"
"1984.44118","-1.96678966789668","-0.44169741697417","-0.385977859778599","-1.02029520295203","0.0335793357933579","0","358.75"
"1987.35294","0.0332103321033213","-3.44169741697417","-1.3859778597786","-1.02029520295203","0.0335793357933579","0","358.75"
"1990.26471","0.0332103321033213","-3.44169741697417","-1.3859778597786","-3.02029520295203","-0.966420664206642","0","358.75"
"1993.17647","3.03321033210332","-1.44169741697417","1.6140221402214","-3.02029520295203","-0.966420664206642","0","358.75"
"1996.08824","3.03321033210332","-1.44169741697417","1.6140221402214","-5.02029520295203","2.03357933579336","0","358.75"
"1999","3.03321033210332","-1.44169741697417","1.6140221402214","-5.02029520295203","2.03357933579336","0","358.75"
"2003.26667","3.03321033210332","-1.44169741697417","1.6140221402214","-1.02029520295203","1.03357933579336","0","358.75"
"2006.53333","1.03321033210332","-0.44169741697417","0.614022140221401","-1.02029520295203","1.03357933579336","0","358.75"
"2009.8","1.03321033210332","-0.44169741697417","0.614022140221401","3.97970479704797","-0.966420664206642","0","358.75"
"2013.06667","-1.96678966789668","-5.44169741697417","-0.385977859778599","3.97970479704797","-0.966420664206642","0","358.75"
"2016.33333","-1.96678966789668","-5.44169741697417","-0.385977859778599","0.979704797047971","-1.96642066420664","0","358.75"
"2019.6","-0.966789667896679","-5.44169741697417","1.6140221402214","0.979704797047971","-1.96642066420664","0","358.75"
"2022.86667","-0.966789667896679","-5.44169741697417","1.6140221402214","-2.02029520295203","2.03357933579336","0","358.75"
"2026.13333","-1.96678966789668","-3.44169741697417","0.614022140221401","-2.02029520295203","2.03357933579336","0","358.75"
"2029.4","-1.96678966789668","-3.44169741697417","0.614022140221401","0.979704797047971","1.03357933579336","0","358.75"
"2032.66667","-1.96678966789668","-3.44169741697417","0.614022140221401","0.979704797047971","1.03357933579336","0","358.75"
"2035.93333","-1.96678966789668","-3.44169741697417","0.614022140221401","1.97970479704797","-0.966420664206642","0","358.75"
"2039.2","-2.96678966789668","-3.44169741697417","1.6140221402214","1.97970479704797","-0.966420664206642","0","358.75"
"2042.46667","-2.96678966789668","-3.44169741697417","1.6140221402214","0.979704797047971","0.0335793357933579","0","358.75"
"2045.73333","-1.96678966789668","-1.44169741697417","-0.385977859778599","0.979704797047971","0.0335793357933579","0","358.75"
"2049","-1.96678966789668","-1.44169741697417","-0.385977859778599","-0.0202952029520295","1.03357933579336","0","358.75"
"2052.26667","-0.966789667896679","0.55830258302583","-0.385977859778599","-0.0202952029520295","1.03357933579336","0","358.75"
"2055.53333","-0.966789667896679","0.55830258302583","-0.385977859778599","1.97970479704797","-0.966420664206642","0","358.75"
"2058.8","-1.96678966789668","-1.44169741697417","-0.385977859778599","1.97970479704797","-0.966420664206642","0","358.75"
"2062.06667","-1.96678966789668","-1.44169741697417","-0.385977859778599","-1.02029520295203","2.03357933579336","0","358.75"
"2065.33333","-1.96678966789668","-1.44169741697417","-0.385977859778599","-1.02029520295203","2.03357933579336","0","358.75"
"2068.6","-1.96678966789668","-1.44169741697417","-0.385977859778599","1.97970479704797","2.03357933579336","0","358.75"
"2071.86667","0.0332103321033213","0.55830258302583","-0.385977859778599","1.97970479704797","2.03357933579336","0","358.75"
"2075.13333","0.0332103321033213","0.55830258302583","-0.385977859778599","-0.0202952029520295","0.0335793357933579","0","358.75"
"2078.4","0.0332103321033213","0.55830258302583","-0.385977859778599","-0.0202952029520295","0.0335793357933579","0","358.75"
"2081.66667","0.0332103321033213","0.55830258302583","-0.385977859778599","-0.0202952029520295","0.0335793357933579","0","358.75"
"2084.93333","-2.96678966789668","0.55830258302583","-2.3859778597786","-0.0202952029520295","0.0335793357933579","0","358.75"
"2088.2","-2.96678966789668","0.55830258302583","-2.3859778597786","0.979704797047971","0.0335793357933579","0","358.75"
"2091.46667","0.0332103321033213","-1.44169741697417","-0.385977859778599","0.979704797047971","0.0335793357933579","0","358.75"
"2094.73333","0.0332103321033213","-1.44169741697417","-0.385977859778599","-0.0202952029520295","-0.966420664206642","0","358.75"
"2098","0.0332103321033213","-1.44169741697417","-0.385977859778599","-0.0202952029520295","-0.966420664206642","0","358.75"
"2103.03125","0.0332103321033213","-1.44169741697417","-0.385977859778599","-1.02029520295203","3.03357933579336","0","358.75"
"2106.0625","1.03321033210332","-0.44169741697417","-0.385977859778599","-1.02029520295203","3.03357933579336","0","358.75"
"2109.09375","1.03321033210332","-0.44169741697417","-0.385977859778599","-2.02029520295203","-1.96642066420664","0","358.75"
"2112.125","0.0332103321033213","-1.44169741697417","0.614022140221401","-2.02029520295203","-1.96642066420664","0","358.75"
"2115.15625","0.0332103321033213","-1.44169741697417","0.614022140221401","-3.02029520295203","3.03357933579336","0","358.75"
"2118.1875","-0.966789667896679","-0.44169741697417","-1.3859778597786","-3.02029520295203","3.03357933579336","0","358.75"
"2121.21875","-0.966789667896679","-0.44169741697417","-1.3859778597786","-3.02029520295203","1.03357933579336","0","358.75"
"2124.25","-1.96678966789668","-1.44169741697417","0.614022140221401","-3.02029520295203","1.03357933579336","0","358.75"
"2127.28125","-1.96678966789668","-1.44169741697417","0.614022140221401","-0.0202952029520295","1.03357933579336","0","358.75"
"2130.3125","-1.96678966789668","-1.44169741697417","0.614022140221401","-0.0202952029520295","1.03357933579336","0","358.75"
"2133.34375","-1.96678966789668","-1.44169741697417","0.614022140221401","0.979704797047971","-0.966420664206642","0","358.75"
"2136.375","0.0332103321033213","-1.44169741697417","1.6140221402214","0.979704797047971","-0.966420664206642","0","358.75"
"2139.40625","0.0332103321033213","-1.44169741697417","1.6140221402214","1.97970479704797","1.03357933579336","0","358.75"
"2142.4375","0.0332103321033213","-0.44169741697417","-1.3859778597786","1.97970479704797","1.03357933579336","0","358.75"
"2145.46875","0.0332103321033213","-0.44169741697417","-1.3859778597786","-0.0202952029520295","0.0335793357933579","0","358.75"
"2148.5","-0.966789667896679","-2.44169741697417","2.6140221402214","-0.0202952029520295","0.0335793357933579","0","358.75"
"2151.53125","-0.966789667896679","-2.44169741697417","2.6140221402214","2.97970479704797","2.03357933579336","0","358.75"
"2154.5625","0.0332103321033213","-2.44169741697417","-0.385977859778599","2.97970479704797","2.03357933579336","0","358.75"
"2157.59375","0.0332103321033213","-2.44169741697417","-0.385977859778599","3.97970479704797","0.0335793357933579","0","358.75"
"2160.625","0.0332103321033213","-2.44169741697417","-0.385977859778599","3.97970479704797","0.0335793357933579","0","358.75"
"2163.65625","0.0332103321033213","-2.44169741697417","-0.385977859778599","-1.02029520295203","1.03357933579336","0","358.75"
"2166.6875","1.03321033210332","-0.44169741697417","3.6140221402214","-1.02029520295203","1.03357933579336","0","358.75"
"2169.71875","1.03321033210332","-0.44169741697417","3.6140221402214","-2.02029520295203","-1.96642066420664","0","358.75"
"2172.75","1.03321033210332","-0.44169741697417","3.6140221402214","-2.02029520295203","-1.96642066420664","0","358.75"
"2175.78125","1.03321033210332","-0.44169741697417","3.6140221402214","-3.02029520295203","-0.966420664206642","0","358.75"
"2178.8125","0.0332103321033213","-0.44169741697417","-1.3859778597786","-3.02029520295203","-0.966420664206642","0","358.75"
"2181.84375","0.0332103321033213","-0.44169741697417","-1.3859778597786","-1.02029520295203","-0.966420664206642","0","358.75"
"2184.875","-0.966789667896679","-2.44169741697417","1.6140221402214","-1.02029520295203","-0.966420664206642","0","358.75"
"2187.90625","-0.966789667896679","-2.44169741697417","1.6140221402214","-2.02029520295203","-0.966420664206642","0","358.75"
"2190.9375","-0.966789667896679","-2.44169741697417","1.6140221402214","-2.02029520295203","-0.966420664206642","0","358.75"
"2193.96875","-0.966789667896679","-2.44169741697417","1.6140221402214","0.979704797047971","0.0335793357933579","0","358.75"
"2197","-0.966789667896679","1.55830258302583","-0.385977859778599","0.979704797047971","0.0335793357933579","0","358.75"
"2203.42857","-0.966789667896679","1.55830258302583","-0.385977859778599","-0.0202952029520295","0.0335793357933579","0","358.75"
"2206.85714","-0.966789667896679","1.55830258302583","-0.385977859778599","-0.0202952029520295","0.0335793357933579","0","358.75"
"2210.28571","-0.966789667896679","1.55830258302583","-0.385977859778599","-0.0202952029520295","-0.966420664206642","0","358.75"
"2213.71429","2.03321033210332","-3.44169741697417","0.614022140221401","-0.0202952029520295","-0.966420664206642","0","358.75"
"2217.14286","2.03321033210332","-3.44169741697417","0.614022140221401","-2.02029520295203","-0.966420664206642","0","358.75"
"2220.57143","-0.966789667896679","-7.44169741697417","1.6140221402214","-2.02029520295203","-0.966420664206642","0","358.75"
"2224","-0.966789667896679","-7.44169741697417","1.6140221402214","0.979704797047971","0.0335793357933579","0","358.75"
"2227.42857","-0.966789667896679","-7.44169741697417","1.6140221402214","0.979704797047971","0.0335793357933579","0","358.75"
"2230.85714","-0.966789667896679","-7.44169741697417","1.6140221402214","-7.02029520295203","3.03357933579336","0","358.75"
"2234.28571","-0.966789667896679","-2.44169741697417","0.614022140221401","-7.02029520295203","3.03357933579336","0","358.75"
"2237.71429","-0.966789667896679","-2.44169741697417","0.614022140221401","-2.02029520295203","1.03357933579336","0","358.75"
"2241.14286","-1.96678966789668","-0.44169741697417","-3.3859778597786","-2.02029520295203","1.03357933579336","0","358.75"
"2244.57143","-1.96678966789668","-0.44169741697417","-3.3859778597786","3.97970479704797","0.0335793357933579","0","358.75"
"2248","0.0332103321033213","0.55830258302583","-1.3859778597786","3.97970479704797","0.0335793357933579","0","358.75"
"2251.42857","0.0332103321033213","0.55830258302583","-1.3859778597786","-1.02029520295203","1.03357933579336","0","358.75"
"2254.85714","0.0332103321033213","-1.44169741697417","-0.385977859778599","-1.02029520295203","1.03357933579336","0","358.75"
"2258.28571","0.0332103321033213","-1.44169741697417","-0.385977859778599","0.979704797047971","1.03357933579336","0","358.75"
"2261.71429","1.03321033210332","0.55830258302583","0.614022140221401","0.979704797047971","1.03357933579336","0","358.75"
"2265.14286","1.03321033210332","0.55830258302583","0.614022140221401","1.97970479704797","2.03357933579336","0","358.75"
"2268.57143","0.0332103321033213","-2.44169741697417","-0.385977859778599","1.97970479704797","2.03357933579336","0","358.75"
"2272","0.0332103321033213","-2.44169741697417","-0.385977859778599","1.97970479704797","1.03357933579336","0","358.75"
"2275.42857","-1.96678966789668","-3.44169741697417","-0.385977859778599","1.97970479704797","1.03357933579336","0","358.75"
"2278.85714","-1.96678966789668","-3.44169741697417","-0.385977859778599","-0.0202952029520295","2.03357933579336","0","358.75"
"2282.28571","-0.966789667896679","-1.44169741697417","-1.3859778597786","-0.0202952029520295","2.03357933579336","0","358.75"
"2285.71429","-0.966789667896679","-1.44169741697417","-1.3859778597786","0.979704797047971","0.0335793357933579","0","358.75"
"2289.14286","0.0332103321033213","-0.44169741697417","-0.385977859778599","0.979704797047971","0.0335793357933579","0","358.75"
"2292.57143","0.0332103321033213","-0.44169741697417","-0.385977859778599","3.97970479704797","-0.966420664206642","0","358.75"
"2296","1.03321033210332","0.55830258302583","0.614022140221401","3.97970479704797","-0.966420664206642","0","358.75"
"2302.91176","1.03321033210332","0.55830258302583","0.614022140221401","0.979704797047971","2.03357933579336","0","358.75"
"2305.82353","-0.966789667896679","-3.44169741697417","1.6140221402214","0.979704797047971","2.03357933579336","0","358.75"
"2308.73529","-0.966789667896679","-3.44169741697417","1.6140221402214","-3.02029520295203","-1.96642066420664","0","358.75"
"2311.64706","2.03321033210332","-2.44169741697417","0.614022140221401","-3.02029520295203","-1.96642066420664","0","358.75"
"2314.55882","2.03321033210332","-2.44169741697417","0.614022140221401","-1.02029520295203","-1.96642066420664","0","358.75"
"2317.47059","2.03321033210332","-2.44169741697417","0.614022140221401","-1.02029520295203","-1.96642066420664","0","358.75"
"2320.38235","2.03321033210332","-2.44169741697417","0.614022140221401","-0.0202952029520295","0.0335793357933579","0","358.75"
"2323.29412","-0.966789667896679","2.55830258302583","-0.385977859778599","-0.0202952029520295","0.0335793357933579","0","358.75"
"2326.20588","-0.966789667896679","2.55830258302583","-0.385977859778599","1.97970479704797","-1.96642066420664","0","358.75"
"2329.11765","1.03321033210332","-0.44169741697417","-0.385977859778599","1.97970479704797","-1.96642066420664","0","358.75"
"2332.02941","1.03321033210332","-0.44169741697417","-0.385977859778599","2.97970479704797","-0.966420664206642","0","358.75"
"2334.94118","2.03321033210332","-2.44169741697417","1.6140221402214","2.97970479704797","-0.966420664206642","0","358.75"
"2337.85294","2.03321033210332","-2.44169741697417","1.6140221402214","1.97970479704797","0.0335793357933579","0","358.75"
"2340.76471","-0.966789667896679","0.55830258302583","-1.3859778597786","1.97970479704797","0.0335793357933579","0","358.75"
"2343.67647","-0.966789667896679","0.55830258302583","-1.3859778597786","-1.02029520295203","0.0335793357933579","0","358.75"
"2346.58824","-0.966789667896679","0.55830258302583","-5.3859778597786","-1.02029520295203","0.0335793357933579","0","358.75"
"2349.5","-0.966789667896679","0.55830258302583","-5.3859778597786","-0.0202952029520295","2.03357933579336","0","358.75"
"2352.41176","0.0332103321033213","-1.44169741697417","0.614022140221401","-0.0202952029520295","2.03357933579336","0","358.75"
"2355.32353","0.0332103321033213","-1.44169741697417","0.614022140221401","-1.02029520295203","-0.966420664206642","0","358.75"
"2358.23529","0.0332103321033213","-0.44169741697417","-0.385977859778599","-1.02029520295203","-0.966420664206642","0","358.75"
"2361.14706","0.0332103321033213","-0.44169741697417","-0.385977859778599","-1.02029520295203","0.0335793357933579","0","358.75"
"2364.05882","-0.966789667896679","-0.44169741697417","1.6140221402214","-1.02029520295203","0.0335793357933579","0","358.75"
"2366.97059","-0.966789667896679","-0.44169741697417","1.6140221402214","1.97970479704797","0.0335793357933579","0","358.75"
"2369.88235","1.03321033210332","0.55830258302583","-3.3859778597786","1.97970479704797","0.0335793357933579","0","358.75"
"2372.79412","1.03321033210332","0.55830258302583","-3.3859778597786","0.979704797047971","0.0335793357933579","0","358.75"
"2375.70588","-0.966789667896679","-0.44169741697417","-1.3859778597786","0.979704797047971","0.0335793357933579","0","358.75"
"2378.61765","-0.966789667896679","-0.44169741697417","-1.3859778597786","-1.02029520295203","0.0335793357933579","0","358.75"
"2381.52941","0.0332103321033213","-2.44169741697417","2.6140221402214","-1.02029520295203","0.0335793357933579","0","358.75"
"2384.44118","0.0332103321033213","-2.44169741697417","2.6140221402214","-0.0202952029520295","-0.966420664206642","0","358.75"
"2387.35294","1.03321033210332","-0.44169741697417","0.614022140221401","-0.0202952029520295","-0.966420664206642","0","358.75"
"2390.26471","1.03321033210332","-0.44169741697417","0.614022140221401","-0.0202952029520295","1.03357933579336","0","358.75"
"2393.17647","-1.96678966789668","-5.44169741697417","1.6140221402214","-0.0202952029520295","1.03357933579336","0","358.75"
"2396.08824","-1.96678966789668","-5.44169741697417","1.6140221402214","-0.0202952029520295","-0.966420664206642","0","358.75"
"2399","-0.966789667896679","-4.44169741697417","0.614022140221401","-0.0202952029520295","-0.966420664206642","0","358.75"
"2403.26667","-0.966789667896679","-4.44169741697417","0.614022140221401","-1.02029520295203","-0.966420664206642","0","358.75"
"2406.53333","-2.96678966789668","-2.44169741697417","-0.385977859778599","-1.02029520295203","-0.966420664206642","0","358.75"
"2409.8","-2.96678966789668","-2.44169741697417","-0.385977859778599","-0.0202952029520295","1.03357933579336","0","358.75"
"2413.06667","-2.96678966789668","-1.44169741697417","-0.385977859778599","-0.0202952029520295","1.03357933579336","0","358.75"
"2416.33333","-2.96678966789668","-1.44169741697417","-0.385977859778599","0.979704797047971","-0.966420664206642","0","358.75"
"2419.6","-1.96678966789668","-1.44169741697417","0.614022140221401","0.979704797047971","-0.966420664206642","0","358.75"
"2422.86667","-1.96678966789668","-1.44169741697417","0.614022140221401","0.979704797047971","0.0335793357933579","0","358.75"
"2426.13333","-2.96678966789668","-3.44169741697417","0.614022140221401","0.979704797047971","0.0335793357933579","0","358.75"
"2429.4","-2.96678966789668","-3.44169741697417","0.614022140221401","1.97970479704797","-1.96642066420664","0","358.75"
"2432.66667","-0.966789667896679","0.55830258302583","1.6140221402214","1.97970479704797","-1.96642066420664","0","358.75"
"2435.93333","-0.966789667896679","0.55830258302583","1.6140221402214","-3.02029520295203","-0.966420664206642","0","358.75"
"2439.2","-2.96678966789668","-0.44169741697417","-1.3859778597786","-3.02029520295203","-0.966420664206642","0","358.75"
"2442.46667","-2.96678966789668","-0.44169741697417","-1.3859778597786","-2.02029520295203","-1.96642066420664","0","358.75"
"2445.73333","-1.96678966789668","-1.44169741697417","1.6140221402214","-2.02029520295203","-1.96642066420664","0","358.75"
"2449","-1.96678966789668","-1.44169741697417","1.6140221402214","1.97970479704797","0.0335793357933579","0","358.75"
"2452.26667","-0.966789667896679","-1.44169741697417","0.614022140221401","1.97970479704797","0.0335793357933579","0","358.75"
"2455.53333","-0.966789667896679","-1.44169741697417","0.614022140221401","-1.02029520295203","-2.96642066420664","0","358.75"
"2458.8","-2.96678966789668","-1.44169741697417","0.614022140221401","-1.02029520295203","-2.96642066420664","0","358.75"
"2462.06667","-2.96678966789668","-1.44169741697417","0.614022140221401","0.979704797047971","-0.966420664206642","0","358.75"
"2465.33333","-0.966789667896679","-0.44169741697417","-1.3859778597786","0.979704797047971","-0.966420664206642","0","358.75"
"2468.6","-0.966789667896679","-0.44169741697417","-1.3859778597786","0.979704797047971","-0.966420664206642","0","358.75"
"2471.86667","-1.96678966789668","-0.44169741697417","-0.385977859778599","0.979704797047971","-0.966420664206642","0","358.75"
"2475.13333","-1.96678966789668","-0.44169741697417","-0.385977859778599","2.97970479704797","-0.966420664206642","0","358.75"
"2478.4","1.03321033210332","-2.44169741697417","0.614022140221401","2.97970479704797","-0.966420664206642","0","358.75"
"2481.66667","1.03321033210332","-2.44169741697417","0.614022140221401","-0.0202952029520295","0.0335793357933579","0","358.75"
"2484.93333","1.03321033210332","-2.44169741697417","3.6140221402214","-0.0202952029520295","0.0335793357933579","0","358.75"
"2488.2","1.03321033210332","-2.44169741697417","3.6140221402214","1.97970479704797","1.03357933579336","0","358.75"
"2491.46667","-0.966789667896679","-0.44169741697417","-0.385977859778599","1.97970479704797","1.03357933579336","0","358.75"
"2494.73333","-0.966789667896679","-0.44169741697417","-0.385977859778599","-1.02029520295203","1.03357933579336","0","358.75"
"2498","0.0332103321033213","-0.44169741697417","0.614022140221401","-1.02029520295203","1.03357933579336","0","358.75"
"2503.0625","0.0332103321033213","-0.44169741697417","0.614022140221401","-3.02029520295203","4.03357933579336","0","358.75"
"2506.125","1.03321033210332","-2.44169741697417","-0.385977859778599","-3.02029520295203","4.03357933579336","0","358.75"
"2509.1875","1.03321033210332","-2.44169741697417","-0.385977859778599","-3.02029520295203","0.0335793357933579","0","358.75"
"2512.25","1.03321033210332","-0.44169741697417","-2.3859778597786","-3.02029520295203","0.0335793357933579","0","358.75"
"2515.3125","1.03321033210332","-0.44169741697417","-2.3859778597786","-0.0202952029520295","3.03357933579336","0","358.75"
"2518.375","1.03321033210332","-2.44169741697417","0.614022140221401","-0.0202952029520295","3.03357933579336","0","358.75"
"2521.4375","1.03321033210332","-2.44169741697417","0.614022140221401","-0.0202952029520295","3.03357933579336","0","358.75"
"2524.5","-0.966789667896679","-1.44169741697417","-0.385977859778599","-0.0202952029520295","3.03357933579336","0","358.75"
"2527.5625","-0.966789667896679","-1.44169741697417","-0.385977859778599","-1.02029520295203","2.03357933579336","0","358.75"
"2530.625","2.03321033210332","-2.44169741697417","-1.3859778597786","-1.02029520295203","2.03357933579336","0","358.75"
"2533.6875","2.03321033210332","-2.44169741697417","-1.3859778597786","-2.02029520295203","2.03357933579336","0","358.75"
"2536.75","-0.966789667896679","-0.44169741697417","-0.385977859778599","-2.02029520295203","2.03357933579336","0","358.75"
"2539.8125","-0.966789667896679","-0.44169741697417","-0.385977859778599","-4.02029520295203","2.03357933579336","0","358.75"
"2542.875","0.0332103321033213","-2.44169741697417","-1.3859778597786","-4.02029520295203","2.03357933579336","0","358.75"
"2545.9375","0.0332103321033213","-2.44169741697417","-1.3859778597786","-0.0202952029520295","0.0335793357933579","0","358.75"
"2549","-0.966789667896679","-0.44169741697417","0.614022140221401","-0.0202952029520295","0.0335793357933579","0","358.75"
"2552.0625","-0.966789667896679","-0.44169741697417","0.614022140221401","-1.02029520295203","-0.966420664206642","0","358.75"
"2555.125","0.0332103321033213","-0.44169741697417","2.6140221402214","-1.02029520295203","-0.966420664206642","0","358.75"
"2558.1875","0.0332103321033213","-0.44169741697417","2.6140221402214","-1.02029520295203","1.03357933579336","0","358.75"
"2561.25","0.0332103321033213","-1.44169741697417","-1.3859778597786","-1.02029520295203","1.03357933579336","0","358.75"
"2564.3125","0.0332103321033213","-1.44169741697417","-1.3859778597786","-0.0202952029520295","1.03357933579336","0","358.75"
"2567.375","-1.96678966789668","0.55830258302583","-1.3859778597786","-0.0202952029520295","1.03357933579336","0","358.75"
"2570.4375","-1.96678966789668","0.55830258302583","-1.3859778597786","3.97970479704797","2.03357933579336","0","358.75"
"2573.5","-0.966789667896679","-0.44169741697417","-0.385977859778599","3.97970479704797","2.03357933579336","0","358.75"
"2576.5625","-0.966789667896679","-0.44169741697417","-0.385977859778599","1.97970479704797","1.03357933579336","0","358.75"
"2579.625","1.03321033210332","-0.44169741697417","1.6140221402214","1.97970479704797","1.03357933579336","0","358.75"
"2582.6875","1.03321033210332","-0.44169741697417","1.6140221402214","0.979704797047971","-0.966420664206642","0","358.75"
"2585.75","-2.96678966789668","-0.44169741697417","2.6140221402214","0.979704797047971","-0.966420664206642","0","358.75"
"2588.8125","-2.96678966789668","-0.44169741697417","2.6140221402214","1.97970479704797","1.03357933579336","0","358.75"
"2591.875","-1.96678966789668","1.55830258302583","-0.385977859778599","1.97970479704797","1.03357933579336","0","358.75"
"2594.9375","-1.96678966789668","1.55830258302583","-0.385977859778599","-0.0202952029520295","0.0335793357933579","0","358.75"
"2598","0.0332103321033213","1.55830258302583","-2.3859778597786","-0.0202952029520295","0.0335793357933579","0","358.75"
"2602.96875","0.0332103321033213","1.55830258302583","-2.3859778597786","1.97970479704797","-0.966420664206642","0","358.75"
"2605.9375","-0.966789667896679","-1.44169741697417","-0.385977859778599","1.97970479704797","-0.966420664206642","0","358.75"
"2608.90625","-0.966789667896679","-1.44169741697417","-0.385977859778599","3.97970479704797","-1.96642066420664","0","358.75"
"2611.875","1.03321033210332","-0.44169741697417","0.614022140221401","3.97970479704797","-1.96642066420664","0","358.75"
"2614.84375","1.03321033210332","-0.44169741697417","0.614022140221401","3.97970479704797","-1.96642066420664","0","358.75"
"2617.8125","1.03321033210332","0.55830258302583","-1.3859778597786","3.97970479704797","-1.96642066420664","0","358.75"
"2620.78125","1.03321033210332","0.55830258302583","-1.3859778597786","-2.02029520295203","0.0335793357933579","0","358.75"
"2623.75","0.0332103321033213","-1.44169741697417","0.614022140221401","-2.02029520295203","0.0335793357933579","0","358.75"
"2626.71875","0.0332103321033213","-1.44169741697417","0.614022140221401","2.97970479704797","3.03357933579336","0","358.75"
"2629.6875","0.0332103321033213","-0.44169741697417","-0.385977859778599","2.97970479704797","3.03357933579336","0","358.75"
"2632.65625","0.0332103321033213","-0.44169741697417","-0.385977859778599","-2.02029520295203","1.03357933579336","0","358.75"
"2635.625","-0.966789667896679","-0.44169741697417","-0.385977859778599","-2.02029520295203","1.03357933579336","0","358.75"
"2638.59375","-0.966789667896679","-0.44169741697417","-0.385977859778599","0.979704797047971","-0.966420664206642","0","358.75"
"2641.5625","0.0332103321033213","-1.44169741697417","-0.385977859778599","0.979704797047971","-0.966420664206642","0","358.75"
"2644.53125","0.0332103321033213","-1.44169741697417","-0.385977859778599","-1.02029520295203","2.03357933579336","0","358.75"
"2647.5","1.03321033210332","-1.44169741697417","1.6140221402214","-1.02029520295203","2.03357933579336","0","358.75"
"2650.46875","1.03321033210332","-1.44169741697417","1.6140221402214","2.97970479704797","-0.966420664206642","0","358.75"
"2653.4375","0.0332103321033213","-0.44169741697417","-1.3859778597786","2.97970479704797","-0.966420664206642","0","358.75"
"2656.40625","0.0332103321033213","-0.44169741697417","-1.3859778597786","4.97970479704797","-0.966420664206642","0","358.75"
"2659.375","1.03321033210332","-0.44169741697417","-1.3859778597786","4.97970479704797","-0.966420664206642","0","358.75"
"2662.34375","1.03321033210332","-0.44169741697417","-1.3859778597786","1.97970479704797","1.03357933579336","0","358.75"
"2665.3125","1.03321033210332","-1.44169741697417","0.614022140221401","1.97970479704797","1.03357933579336","0","358.75"
"2668.28125","1.03321033210332","-1.44169741697417","0.614022140221401","0.979704797047971","0.0335793357933579","0","358.75"
"2671.25","0.0332103321033213","-2.44169741697417","-0.385977859778599","0.979704797047971","0.0335793357933579","0","358.75"
"2674.21875","0.0332103321033213","-2.44169741697417","-0.385977859778599","-2.02029520295203","-0.966420664206642","0","358.75"
"2677.1875","0.0332103321033213","-0.44169741697417","0.614022140221401","-2.02029520295203","-0.966420664206642","0","358.75"
"2680.15625","0.0332103321033213","-0.44169741697417","0.614022140221401","-0.0202952029520295","4.03357933579336","0","358.75"
"2683.125","1.03321033210332","-0.44169741697417","1.6140221402214","-0.0202952029520295","4.03357933579336","0","358.75"
"2686.09375","1.03321033210332","-0.44169741697417","1.6140221402214","0.979704797047971","4.03357933579336","0","358.75"
"2689.0625","2.03321033210332","-1.44169741697417","-0.385977859778599","0.979704797047971","4.03357933579336","0","358.75"
"2692.03125","2.03321033210332","-1.44169741697417","-0.385977859778599","0.979704797047971","4.03357933579336","0","358.75"
"2695","-0.966789667896679","0.55830258302583","-0.385977859778599","0.979704797047971","4.03357933579336","0","358.75"
"2703.0625","-0.966789667896679","0.55830258302583","-0.385977859778599","1.97970479704797","1.03357933579336","0","358.75"
"2706.125","3.03321033210332","-0.44169741697417","-0.385977859778599","1.97970479704797","1.03357933579336","0","358.75"
"2709.1875","3.03321033210332","-0.44169741697417","-0.385977859778599","1.97970479704797","2.03357933579336","0","358.75"
"2712.25","2.03321033210332","-1.44169741697417","-1.3859778597786","1.97970479704797","2.03357933579336","0","358.75"
"2715.3125","2.03321033210332","-1.44169741697417","-1.3859778597786","-0.0202952029520295","1.03357933579336","0","358.75"
"2718.375","2.03321033210332","-0.44169741697417","0.614022140221401","-0.0202952029520295","1.03357933579336","0","358.75"
"2721.4375","2.03321033210332","-0.44169741697417","0.614022140221401","1.97970479704797","1.03357933579336","0","358.75"
"2724.5","-0.966789667896679","-0.44169741697417","-0.385977859778599","1.97970479704797","1.03357933579336","0","358.75"
"2727.5625","-0.966789667896679","-0.44169741697417","-0.385977859778599","1.97970479704797","2.03357933579336","0","358.75"
"2730.625","-0.966789667896679","0.55830258302583","-0.385977859778599","1.97970479704797","2.03357933579336","0","358.75"
"2733.6875","-0.966789667896679","0.55830258302583","-0.385977859778599","1.97970479704797","1.03357933579336","0","358.75"
"2736.75","-0.966789667896679","-0.44169741697417","0.614022140221401","1.97970479704797","1.03357933579336","0","358.75"
"2739.8125","-0.966789667896679","-0.44169741697417","0.614022140221401","0.979704797047971","0.0335793357933579","0","358.75"
"2742.875","-0.966789667896679","-2.44169741697417","1.6140221402214","0.979704797047971","0.0335793357933579","0","358.75"
"2745.9375","-0.966789667896679","-2.44169741697417","1.6140221402214","-1.02029520295203","1.03357933579336","0","358.75"
"2749","-1.96678966789668","-1.44169741697417","2.6140221402214","-1.02029520295203","1.03357933579336","0","358.75"
"2752.0625","-1.96678966789668","-1.44169741697417","2.6140221402214","0.979704797047971","4.03357933579336","0","358.75"
"2755.125","-2.96678966789668","-1.44169741697417","-0.385977859778599","0.979704797047971","4.03357933579336","0","358.75"
"2758.1875","-2.96678966789668","-1.44169741697417","-0.385977859778599","-0.0202952029520295","1.03357933579336","0","358.75"
"2761.25","-0.966789667896679","-1.44169741697417","0.614022140221401","-0.0202952029520295","1.03357933579336","0","358.75"
"2764.3125","-0.966789667896679","-1.44169741697417","0.614022140221401","-2.02029520295203","0.0335793357933579","0","358.75"
"2767.375","-0.966789667896679","-1.44169741697417","1.6140221402214","-2.02029520295203","0.0335793357933579","0","358.75"
"2770.4375","-0.966789667896679","-1.44169741697417","1.6140221402214","-0.0202952029520295","2.03357933579336","0","358.75"
"2773.5","-1.96678966789668","-1.44169741697417","0.614022140221401","-0.0202952029520295","2.03357933579336","0","358.75"
"2776.5625","-1.96678966789668","-1.44169741697417","0.614022140221401","0.979704797047971","3.03357933579336","0","358.75"
"2779.625","-1.96678966789668","-0.44169741697417","-0.385977859778599","0.979704797047971","3.03357933579336","0","358.75"
"2782.6875","-1.96678966789668","-0.44169741697417","-0.385977859778599","-0.0202952029520295","1.03357933579336","0","358.75"
"2785.75","-0.966789667896679","-3.44169741697417","-1.3859778597786","-0.0202952029520295","1.03357933579336","0","358.75"
"2788.8125","-0.966789667896679","-3.44169741697417","-1.3859778597786","-2.02029520295203","0.0335793357933579","0","358.75"
"2791.875","0.0332103321033213","-3.44169741697417","-1.3859778597786","-2.02029520295203","0.0335793357933579","0","358.75"
"2794.9375","0.0332103321033213","-3.44169741697417","-1.3859778597786","0.979704797047971","-2.96642066420664","0","358.75"
"2798","-0.966789667896679","0.55830258302583","-0.385977859778599","0.979704797047971","-2.96642066420664","0","358.75"
"2802.90625","-0.966789667896679","0.55830258302583","-0.385977859778599","-1.02029520295203","-0.966420664206642","0","358.75"
"2805.8125","0.0332103321033213","1.55830258302583","2.6140221402214","-1.02029520295203","-0.966420664206642","0","358.75"
"2808.71875","0.0332103321033213","1.55830258302583","2.6140221402214","-1.02029520295203","-0.966420664206642","0","358.75"
"2811.625","-1.96678966789668","-1.44169741697417","2.6140221402214","-1.02029520295203","-0.966420664206642","0","358.75"
"2814.53125","-1.96678966789668","-1.44169741697417","2.6140221402214","-2.02029520295203","1.03357933579336","0","358.75"
"2817.4375","-0.966789667896679","-0.44169741697417","-1.3859778597786","-2.02029520295203","1.03357933579336","0","358.75"
"2820.34375","-0.966789667896679","-0.44169741697417","-1.3859778597786","-0.0202952029520295","-0.966420664206642","0","358.75"
"2823.25","0.0332103321033213","0.55830258302583","0.614022140221401","-0.0202952029520295","-0.966420664206642","0","358.75"
"2826.15625","0.0332103321033213","0.55830258302583","0.614022140221401","1.97970479704797","-4.96642066420664","0","358.75"
"2829.0625","2.03321033210332","-0.44169741697417","-0.385977859778599","1.97970479704797","-4.96642066420664","0","358.75"
"2831.96875","2.03321033210332","-0.44169741697417","-0.385977859778599","-3.02029520295203","-3.96642066420664","0","358.75"
"2834.875","1.03321033210332","-0.44169741697417","4.6140221402214","-3.02029520295203","-3.96642066420664","0","358.75"
"2837.78125","1.03321033210332","-0.44169741697417","4.6140221402214","-4.02029520295203","0.0335793357933579","0","358.75"
"2840.6875","2.03321033210332","-1.44169741697417","-0.385977859778599","-4.02029520295203","0.0335793357933579","0","358.75"
"2843.59375","2.03321033210332","-1.44169741697417","-0.385977859778599","-2.02029520295203","1.03357933579336","0","358.75"
"2846.5","1.03321033210332","-0.44169741697417","-1.3859778597786","-2.02029520295203","1.03357933579336","0","358.75"
"2849.40625","1.03321033210332","-0.44169741697417","-1.3859778597786","-1.02029520295203","-0.966420664206642","0","358.75"
"2852.3125","2.03321033210332","0.55830258302583","-1.3859778597786","-1.02029520295203","-0.966420664206642","0","358.75"
"2855.21875","2.03321033210332","0.55830258302583","-1.3859778597786","-0.0202952029520295","0.0335793357933579","0","358.75"
"2858.125","1.03321033210332","-0.44169741697417","1.6140221402214","-0.0202952029520295","0.0335793357933579","0","358.75"
"2861.03125","1.03321033210332","-0.44169741697417","1.6140221402214","-3.02029520295203","2.03357933579336","0","358.75"
"2863.9375","2.03321033210332","-1.44169741697417","-0.385977859778599","-3.02029520295203","2.03357933579336","0","358.75"
"2866.84375","2.03321033210332","-1.44169741697417","-0.385977859778599","-1.02029520295203","-1.96642066420664","0","358.75"
"2869.75","2.03321033210332","-1.44169741697417","-1.3859778597786","-1.02029520295203","-1.96642066420664","0","358.75"
"2872.65625","2.03321033210332","-1.44169741697417","-1.3859778597786","-1.02029520295203","-0.966420664206642","0","358.75"
"2875.5625","1.03321033210332","-1.44169741697417","-0.385977859778599","-1.02029520295203","-0.966420664206642","0","358.75"
"2878.46875","1.03321033210332","-1.44169741697417","-0.385977859778599","-1.02029520295203","2.03357933579336","0","358.75"
"2881.375","1.03321033210332","-0.44169741697417","-0.385977859778599","-1.02029520295203","2.03357933579336","0","358.75"
"2884.28125","1.03321033210332","-0.44169741697417","-0.385977859778599","0.979704797047971","0.0335793357933579","0","358.75"
"2887.1875","0.0332103321033213","-2.44169741697417","-0.385977859778599","0.979704797047971","0.0335793357933579","0","358.75"
"2890.09375","0.0332103321033213","-2.44169741697417","-0.385977859778599","-0.0202952029520295","0.0335793357933579","0","358.75"
"2893","1.03321033210332","-3.44169741697417","1.6140221402214","-0.0202952029520295","0.0335793357933579","0","358.75"
"2900","1.03321033210332","-3.44169741697417","1.6140221402214","-0.0202952029520295","2.03357933579336","0","358.75"
"2900","-1.96678966789668","-1.44169741697417","-1.3859778597786","-0.0202952029520295","2.03357933579336","0","358.75"
"2903.2","-1.96678966789668","-1.44169741697417","-1.3859778597786","-1.02029520295203","3.03357933579336","0","358.75"
"2906.4","-0.966789667896679","-1.44169741697417","-0.385977859778599","-1.02029520295203","3.03357933579336","0","358.75"
"2909.6","-0.966789667896679","-1.44169741697417","-0.385977859778599","-2.02029520295203","1.03357933579336","0","358.75"
"2912.8","-3.96678966789668","-0.44169741697417","-2.3859778597786","-2.02029520295203","1.03357933579336","0","358.75"
"2916","-3.96678966789668","-0.44169741697417","-2.3859778597786","-0.0202952029520295","2.03357933579336","0","358.75"
"2919.2","-3.96678966789668","-0.44169741697417","-0.385977859778599","-0.0202952029520295","2.03357933579336","0","358.75"
"2922.4","-3.96678966789668","-0.44169741697417","-0.385977859778599","0.979704797047971","-0.966420664206642","0","358.75"
"2925.6","-1.96678966789668","1.55830258302583","-1.3859778597786","0.979704797047971","-0.966420664206642","0","358.75"
"2928.8","-1.96678966789668","1.55830258302583","-1.3859778597786","-1.02029520295203","3.03357933579336","0","358.75"
"2932","-1.96678966789668","-0.44169741697417","-0.385977859778599","-1.02029520295203","3.03357933579336","0","358.75"
"2935.2","-1.96678966789668","-0.44169741697417","-0.385977859778599","-1.02029520295203","-0.966420664206642","0","358.75"
"2938.4","-3.96678966789668","-0.44169741697417","-1.3859778597786","-1.02029520295203","-0.966420664206642","0","358.75"
"2941.6","-3.96678966789668","-0.44169741697417","-1.3859778597786","-4.02029520295203","2.03357933579336","0","358.75"
"2944.8","-3.96678966789668","1.55830258302583","-0.385977859778599","-4.02029520295203","2.03357933579336","0","358.75"
"2948","-3.96678966789668","1.55830258302583","-0.385977859778599","-2.02029520295203","0.0335793357933579","0","358.75"
"2951.2","-2.96678966789668","-0.44169741697417","-0.385977859778599","-2.02029520295203","0.0335793357933579","0","358.75"
"2954.4","-2.96678966789668","-0.44169741697417","-0.385977859778599","-1.02029520295203","0.0335793357933579","0","358.75"
"2957.6","-0.966789667896679","-1.44169741697417","1.6140221402214","-1.02029520295203","0.0335793357933579","0","358.75"
"2960.8","-0.966789667896679","-1.44169741697417","1.6140221402214","-0.0202952029520295","0.0335793357933579","0","358.75"
"2964","-0.966789667896679","-0.44169741697417","-0.385977859778599","-0.0202952029520295","0.0335793357933579","0","358.75"
"2967.2","-0.966789667896679","-0.44169741697417","-0.385977859778599","-2.02029520295203","-1.96642066420664","0","358.75"
"2970.4","-0.966789667896679","-0.44169741697417","-0.385977859778599","-2.02029520295203","-1.96642066420664","0","358.75"
"2973.6","-0.966789667896679","-0.44169741697417","-0.385977859778599","-2.02029520295203","0.0335793357933579","0","358.75"
"2976.8","-0.966789667896679","-1.44169741697417","-0.385977859778599","-2.02029520295203","0.0335793357933579","0","358.75"
"2980","-0.966789667896679","-1.44169741697417","-0.385977859778599","-1.02029520295203","0.0335793357933579","0","358.75"
"2983.2","0.0332103321033213","-3.44169741697417","-0.385977859778599","-1.02029520295203","0.0335793357933579","0","358.75"
"2986.4","0.0332103321033213","-3.44169741697417","-0.385977859778599","-0.0202952029520295","-1.96642066420664","0","358.75"
"2989.6","-0.966789667896679","-2.44169741697417","0.614022140221401","-0.0202952029520295","-1.96642066420664","0","358.75"
"2992.8","-0.966789667896679","-2.44169741697417","0.614022140221401","-2.02029520295203","-2.96642066420664","0","358.75"
"2996","1.03321033210332","-0.44169741697417","1.6140221402214","-2.02029520295203","-2.96642066420664","0","358.75"
"3002.79412","1.03321033210332","-0.44169741697417","1.6140221402214","-1.02029520295203","2.03357933579336","0","358.75"
"3005.58824","-0.966789667896679","-2.44169741697417","-0.385977859778599","-1.02029520295203","2.03357933579336","0","358.75"
"3008.38235","-0.966789667896679","-2.44169741697417","-0.385977859778599","-3.02029520295203","0.0335793357933579","0","358.75"
"3011.17647","2.03321033210332","-2.44169741697417","1.6140221402214","-3.02029520295203","0.0335793357933579","0","358.75"
"3013.97059","2.03321033210332","-2.44169741697417","1.6140221402214","-2.02029520295203","0.0335793357933579","0","358.75"
"3016.76471","1.03321033210332","-1.44169741697417","0.614022140221401","-2.02029520295203","0.0335793357933579","0","358.75"
"3019.55882","1.03321033210332","-1.44169741697417","0.614022140221401","-2.02029520295203","-1.96642066420664","0","358.75"
"3022.35294","1.03321033210332","1.55830258302583","-0.385977859778599","-2.02029520295203","-1.96642066420664","0","358.75"
"3025.14706","1.03321033210332","1.55830258302583","-0.385977859778599","-1.02029520295203","0.0335793357933579","0","358.75"
"3027.94118","1.03321033210332","-1.44169741697417","-1.3859778597786","-1.02029520295203","0.0335793357933579","0","358.75"
"3030.73529","1.03321033210332","-1.44169741697417","-1.3859778597786","-4.02029520295203","2.03357933579336","0","358.75"
"3033.52941","1.03321033210332","-2.44169741697417","-0.385977859778599","-4.02029520295203","2.03357933579336","0","358.75"
"3036.32353","1.03321033210332","-2.44169741697417","-0.385977859778599","-3.02029520295203","2.03357933579336","0","358.75"
"3039.11765","0.0332103321033213","-2.44169741697417","-2.3859778597786","-3.02029520295203","2.03357933579336","0","358.75"
"3041.91176","0.0332103321033213","-2.44169741697417","-2.3859778597786","-2.02029520295203","2.03357933579336","0","358.75"
"3044.70588","0.0332103321033213","0.55830258302583","-0.385977859778599","-2.02029520295203","2.03357933579336","0","358.75"
"3047.5","0.0332103321033213","0.55830258302583","-0.385977859778599","-1.02029520295203","3.03357933579336","0","358.75"
"3050.29412","2.03321033210332","-3.44169741697417","2.6140221402214","-1.02029520295203","3.03357933579336","0","358.75"
"3053.08824","2.03321033210332","-3.44169741697417","2.6140221402214","3.97970479704797","0.0335793357933579","0","358.75"
"3055.88235","1.03321033210332","-2.44169741697417","-0.385977859778599","3.97970479704797","0.0335793357933579","0","358.75"
"3058.67647","1.03321033210332","-2.44169741697417","-0.385977859778599","0.979704797047971","1.03357933579336","0","358.75"
"3061.47059","-0.966789667896679","0.55830258302583","-0.385977859778599","0.979704797047971","1.03357933579336","0","358.75"
"3064.26471","-0.966789667896679","0.55830258302583","-0.385977859778599","-1.02029520295203","1.03357933579336","0","358.75"
"3067.05882","-0.966789667896679","-3.44169741697417","1.6140221402214","-1.02029520295203","1.03357933579336","0","358.75"
"3069.85294","-0.966789667896679","-3.44169741697417","1.6140221402214","-1.02029520295203","-1.96642066420664","0","358.75"
"3072.64706","-0.966789667896679","-2.44169741697417","-0.385977859778599","-1.02029520295203","-1.96642066420664","0","358.75"
"3075.44118","-0.966789667896679","-2.44169741697417","-0.385977859778599","-4.02029520295203","1.03357933579336","0","358.75"
"3078.23529","-1.96678966789668","0.55830258302583","-0.385977859778599","-4.02029520295203","1.03357933579336","0","358.75"
"3081.02941","-1.96678966789668","0.55830258302583","-0.385977859778599","-1.02029520295203","1.03357933579336","0","358.75"
"3083.82353","-0.966789667896679","-0.44169741697417","2.6140221402214","-1.02029520295203","1.03357933579336","0","358.75"
"3086.61765","-0.966789667896679","-0.44169741697417","2.6140221402214","0.979704797047971","4.03357933579336","0","358.75"
"3089.41176","-0.966789667896679","-2.44169741697417","-1.3859778597786","0.979704797047971","4.03357933579336","0","358.75"
"3092.20588","-0.966789667896679","-2.44169741697417","-1.3859778597786","-2.02029520295203","0.0335793357933579","0","358.75"
